aX,aY,aZ,gX,gY,gZ
-1.738,0.797,0.049,-82.336,-149.719,0.854
-1.723,0.824,-0.017,-91.309,-148.621,22.583
-1.700,0.803,-0.064,-100.220,-146.484,42.847
-1.660,0.767,-0.120,-108.215,-143.372,59.265
-1.637,0.732,-0.174,-116.882,-138.733,72.021
-1.632,0.704,-0.215,-121.521,-132.812,84.290
-1.624,0.671,-0.244,-122.925,-126.526,97.168
-1.612,0.656,-0.280,-121.643,-119.934,111.389
-1.572,0.634,-0.338,-122.009,-114.075,126.770
-1.494,0.591,-0.402,-126.648,-105.896,140.869
-1.438,0.539,-0.483,-134.094,-95.703,155.334
-1.359,0.488,-0.534,-139.099,-82.397,169.189
-1.274,0.409,-0.563,-144.775,-65.430,180.969
-1.222,0.312,-0.591,-153.442,-45.837,189.758
-1.172,0.224,-0.595,-159.119,-28.809,193.970
-1.126,0.163,-0.579,-162.048,-15.747,195.740
-1.101,0.085,-0.588,-164.612,-5.432,195.374
-1.063,0.043,-0.550,-170.715,3.723,193.237
-1.021,0.035,-0.511,-167.480,9.216,189.087
-0.999,0.020,-0.553,-149.170,17.029,190.918
-0.955,-0.028,-0.563,-134.888,30.884,195.740
-0.901,-0.029,-0.520,-126.160,46.875,198.853
-0.893,-0.022,-0.476,-121.094,62.805,203.491
-0.884,-0.024,-0.440,-123.901,74.890,209.045
-0.855,-0.028,-0.433,-131.714,80.994,212.830
-0.808,-0.051,-0.427,-142.456,83.252,214.111
-0.746,-0.068,-0.406,-154.663,85.144,212.219
-0.705,-0.069,-0.392,-165.894,88.623,208.740
-0.655,-0.058,-0.396,-173.218,93.872,207.275
-0.594,-0.043,-0.413,-177.490,102.051,209.106
-0.515,-0.028,-0.433,-184.570,114.990,210.632
-0.485,0.005,-0.480,-198.669,131.592,213.562
-0.425,0.029,-0.488,-209.290,149.597,219.116
-0.370,0.033,-0.475,-213.196,165.833,225.281
-0.297,-0.023,-0.432,-214.050,182.312,228.333
-0.249,-0.065,-0.360,-214.050,196.411,228.271
-0.211,-0.103,-0.276,-212.646,205.566,226.746
-0.178,-0.132,-0.219,-209.167,210.449,223.328
-0.123,-0.141,-0.191,-205.750,212.708,219.482
-0.087,-0.123,-0.169,-207.214,213.440,214.539
-0.057,-0.075,-0.141,-211.792,213.562,210.205
-0.009,-0.061,-0.098,-214.111,214.172,206.726
0.049,-0.036,-0.065,-216.919,213.867,202.148
0.091,-0.005,-0.050,-224.243,213.196,198.547
0.150,0.007,-0.013,-229.553,212.036,196.106
0.211,0.015,0.028,-229.370,211.121,193.787
0.272,0.026,0.054,-228.455,211.609,191.406
0.334,0.028,0.116,-224.487,212.402,188.660
0.411,0.010,0.200,-216.125,212.524,184.570
0.487,0.001,0.278,-210.449,211.487,179.871
0.576,0.012,0.352,-207.520,205.566,175.720
0.660,-0.000,0.440,-207.031,196.411,171.875
0.711,-0.052,0.507,-209.167,184.875,169.800
0.751,-0.120,0.587,-206.787,174.011,168.030
0.736,-0.125,0.632,-196.411,161.926,164.124
0.893,-0.130,0.719,-179.565,148.254,155.884
0.891,-0.022,0.680,-169.250,128.601,144.165
0.940,0.047,0.712,-167.664,107.666,132.202
0.984,0.129,0.741,-164.307,89.233,119.446
1.001,0.175,0.817,-159.241,76.111,111.023
1.042,0.202,0.901,-148.437,65.430,109.070
1.077,0.184,0.985,-133.789,58.044,110.046
1.112,0.163,1.063,-122.253,50.659,108.765
1.135,0.141,1.134,-119.202,40.588,103.882
1.134,0.100,1.186,-118.469,29.419,95.886
1.137,0.050,1.239,-110.901,20.996,85.999
1.137,0.018,1.314,-100.708,15.015,74.646
1.130,0.030,1.372,-89.050,11.353,64.880
1.137,0.058,1.336,-72.449,12.573,59.875
1.110,0.054,1.329,-55.542,14.771,52.124
1.080,0.045,1.342,-42.542,15.564,40.283
1.028,0.021,1.371,-31.250,15.076,29.114
0.963,-0.009,1.381,-19.470,12.146,19.470
0.896,-0.038,1.363,-9.827,7.019,11.292
0.821,-0.052,1.320,-2.563,-0.732,3.418
0.740,-0.067,1.251,3.540,-9.827,-3.662
0.658,-0.073,1.175,9.888,-17.883,-10.559
0.573,-0.084,1.102,16.418,-24.231,-16.296
0.506,-0.076,1.023,23.071,-27.771,-18.982
0.442,-0.052,0.951,28.320,-29.602,-20.447
0.375,-0.034,0.878,29.358,-30.334,-19.897
0.325,-0.035,0.826,29.175,-30.762,-17.212
0.302,-0.042,0.764,27.100,-29.358,-13.672
0.282,-0.054,0.716,22.522,-26.550,-10.376
0.282,-0.054,0.687,18.677,-22.034,-7.874
0.267,-0.057,0.686,16.052,-14.160,-4.822
0.260,-0.070,0.719,15.076,-4.517,-2.258
0.257,-0.085,0.777,16.479,5.676,-0.366
0.266,-0.097,0.833,18.066,13.428,1.465
0.280,-0.105,0.886,19.226,18.188,2.869
0.278,-0.102,0.939,19.531,18.433,3.723
0.293,-0.094,0.972,21.118,15.808,4.028
0.311,-0.080,0.988,22.400,11.047,4.639
0.336,-0.075,0.991,22.278,5.676,4.150
0.373,-0.077,0.970,20.203,1.160,2.686
0.408,-0.088,0.953,19.348,-1.587,1.404
0.438,-0.092,0.929,19.104,-2.686,0.183
0.453,-0.072,0.896,18.372,-2.563,-0.549
0.461,-0.078,0.865,17.273,-1.160,-0.427
0.466,-0.108,0.856,17.151,1.221,-1.587
0.450,-0.116,0.850,16.602,3.235,-2.319
0.419,-0.126,0.837,15.991,3.906,-2.625
0.404,-0.131,0.837,16.113,2.930,-3.418
0.397,-0.158,0.843,16.785,0.977,-3.418
0.391,-0.184,0.854,18.372,-1.160,-3.967
0.389,-0.179,0.846,21.240,-3.418,-5.615
0.384,-0.158,0.829,22.217,-6.409,-7.080
0.379,-0.138,0.812,20.935,-9.155,-7.996
0.378,-0.131,0.796,18.372,-10.498,-8.057
0.389,-0.142,0.785,16.174,-10.254,-7.690
0.407,-0.156,0.778,13.794,-8.423,-7.385
0.409,-0.172,0.780,10.559,-5.798,-8.118
0.405,-0.185,0.800,8.728,-3.418,-8.301
0.391,-0.191,0.829,8.301,-0.977,-7.812
0.378,-0.192,0.865,8.301,1.160,-7.263
0.377,-0.200,0.892,8.728,2.441,-6.531
0.381,-0.198,0.924,10.254,2.441,-6.226
0.393,-0.196,0.952,12.024,1.465,-5.371
0.407,-0.194,0.967,12.451,-0.488,-5.127

1.117,-0.259,1.089,151.733,-10.986,-106.384
1.112,-0.263,1.051,149.780,-7.874,-124.329
1.104,-0.243,1.008,149.841,-4.150,-141.235
1.084,-0.209,0.973,152.100,-0.732,-155.640
1.069,-0.146,0.946,155.396,1.404,-168.091
1.065,-0.070,0.909,159.607,2.625,-178.528
1.039,-0.007,0.869,162.598,1.587,-186.218
0.984,0.037,0.829,165.649,-0.916,-189.941
0.888,0.052,0.812,168.823,-5.249,-193.176
0.802,0.062,0.766,170.288,-12.329,-196.350
0.720,0.034,0.689,169.678,-21.179,-202.454
0.611,-0.024,0.626,164.612,-30.518,-212.158
0.592,-0.064,0.564,153.076,-32.898,-233.337
0.586,-0.031,0.518,154.114,-38.025,-247.620
0.524,-0.057,0.492,156.921,-47.729,-248.352
0.465,-0.106,0.471,154.907,-52.917,-244.019
0.379,-0.145,0.442,151.428,-55.237,-243.042
0.317,-0.174,0.389,146.729,-56.946,-246.277
0.258,-0.182,0.316,141.479,-61.523,-250.610
0.205,-0.194,0.241,135.254,-66.956,-257.507
0.165,-0.204,0.166,127.258,-71.533,-265.991
0.099,-0.202,0.104,120.239,-74.280,-271.851
0.005,-0.196,0.060,116.150,-76.538,-271.912
-0.064,-0.205,0.014,114.441,-78.979,-268.860
-0.119,-0.211,-0.021,113.159,-82.031,-267.578
-0.198,-0.218,-0.042,111.877,-86.792,-267.090
-0.261,-0.227,-0.056,110.901,-90.881,-266.846
-0.301,-0.226,-0.069,110.779,-95.032,-268.188
-0.328,-0.246,-0.075,112.488,-99.731,-272.400
-0.318,-0.247,-0.076,112.976,-104.797,-277.832
-0.321,-0.262,-0.080,110.107,-108.643,-282.959
-0.321,-0.263,-0.074,103.760,-112.244,-287.170
-0.329,-0.278,-0.055,96.985,-114.075,-291.870
-0.348,-0.261,-0.063,92.468,-114.685,-297.485
-0.362,-0.221,-0.065,92.712,-116.089,-304.626
-0.378,-0.162,-0.057,96.863,-119.263,-311.829
-0.404,-0.081,-0.043,101.196,-122.681,-319.519
-0.443,0.025,-0.078,105.286,-127.563,-332.520
-0.489,0.148,-0.101,103.455,-132.568,-347.656
-0.589,0.342,-0.142,98.633,-137.817,-352.905
-0.633,0.459,-0.155,101.074,-139.954,-350.098
-0.679,0.515,-0.144,110.168,-141.785,-342.896
-0.708,0.552,-0.135,118.408,-145.935,-332.703
-0.731,0.569,-0.131,124.817,-148.193,-325.562
-0.769,0.607,-0.166,129.211,-150.269,-320.618
-0.794,0.684,-0.190,133.850,-152.771,-315.796
-0.804,0.722,-0.192,136.780,-159.668,-308.411
-0.776,0.729,-0.213,132.629,-164.673,-303.650
-0.740,0.719,-0.242,125.061,-167.114,-302.063
-0.702,0.726,-0.256,108.704,-168.091,-300.659
-0.698,0.769,-0.255,85.510,-170.715,-294.006
-0.681,0.825,-0.257,81.909,-170.349,-290.466
-0.671,0.877,-0.274,102.539,-168.213,-288.574
-0.697,0.922,-0.319,130.859,-166.199,-293.579
-0.698,1.022,-0.333,146.423,-162.598,-299.316
-0.684,1.189,-0.342,158.386,-160.034,-296.448
-0.665,1.336,-0.357,171.814,-163.513,-284.973
-0.666,1.433,-0.404,176.270,-166.931,-272.217
-0.649,1.508,-0.490,169.617,-164.307,-258.423
-0.659,1.554,-0.617,168.091,-152.649,-244.141
-0.677,1.599,-0.721,165.649,-135.193,-224.487
-0.722,1.683,-0.793,166.687,-116.821,-197.205
-0.729,1.711,-0.882,169.006,-96.924,-169.922
-0.768,1.742,-0.930,167.358,-76.965,-146.423
-0.794,1.777,-0.945,157.043,-60.059,-126.587
-0.795,1.788,-0.956,138.428,-48.950,-110.535
-0.800,1.791,-0.944,113.647,-41.321,-97.717
-0.802,1.755,-0.910,88.623,-33.081,-85.754
-0.802,1.715,-0.872,67.993,-23.987,-71.899
-0.820,1.673,-0.831,51.086,-13.855,-56.458
-0.858,1.660,-0.730,36.560,-7.324,-41.992
-0.825,1.593,-0.628,27.527,-2.075,-26.855
-0.822,1.496,-0.582,17.517,7.690,-13.245
-0.810,1.394,-0.524,11.475,12.939,-4.211
-0.766,1.297,-0.460,7.202,15.442,3.662
-0.713,1.191,-0.399,3.906,17.273,10.071
-0.662,1.086,-0.346,0.305,19.165,13.428
-0.628,0.996,-0.307,-3.967,21.423,14.954
-0.604,0.925,-0.265,-6.836,22.034,14.832
-0.585,0.879,-0.224,-7.751,21.606,15.015
-0.572,0.840,-0.188,-8.240,21.179,15.686
-0.566,0.811,-0.164,-8.667,22.034,16.785
-0.565,0.795,-0.141,-7.690,21.851,18.066
-0.566,0.779,-0.122,-6.531,20.508,19.104
-0.554,0.761,-0.106,-5.127,19.409,19.653
-0.549,0.750,-0.098,-4.089,18.738,20.447
-0.541,0.737,-0.095,-4.028,17.883,19.653
-0.533,0.731,-0.101,-5.310,16.479,17.578
-0.531,0.737,-0.105,-6.409,14.038,15.198
-0.530,0.744,-0.113,-7.629,10.193,13.916
-0.526,0.750,-0.128,-9.155,6.287,12.451
-0.524,0.756,-0.147,-10.803,3.296,10.498
-0.519,0.758,-0.175,-11.475,1.587,9.399
-0.512,0.757,-0.201,-10.925,1.404,9.583
-0.505,0.752,-0.225,-9.766,1.892,9.460
-0.494,0.747,-0.250,-9.644,2.869,9.033
-0.486,0.739,-0.268,-9.644,3.540,8.423
-0.477,0.736,-0.280,-9.033,3.418,7.141
-0.470,0.742,-0.290,-7.935,2.808,6.226
-0.471,0.745,-0.304,-6.592,2.075,5.310
-0.473,0.752,-0.322,-5.981,1.831,4.089
-0.477,0.765,-0.331,-4.456,2.075,3.418
-0.476,0.779,-0.330,-2.808,2.563,3.113
-0.482,0.794,-0.324,-0.916,3.418,2.930
-0.490,0.799,-0.317,0.671,4.456,3.357
-0.492,0.802,-0.308,1.465,5.737,3.906
-0.500,0.804,-0.296,2.380,7.446,4.272
-0.505,0.805,-0.278,3.418,9.338,4.822
-0.512,0.813,-0.256,4.089,11.353,5.188
-0.519,0.808,-0.245,3.540,13.123,4.028
-0.529,0.802,-0.243,1.465,14.893,3.662
-0.538,0.796,-0.234,-0.183,15.381,3.357
-0.548,0.797,-0.222,-1.526,14.282,3.052
-0.556,0.797,-0.205,-2.686,12.146,3.296
-0.568,0.801,-0.198,-3.967,9.583,3.723
-0.579,0.799,-0.197,-4.944,7.996,3.723
-0.578,0.793,-0.201,-4.883,6.226,4.578
-0.573,0.782,-0.204,-4.333,3.784,5.432
-0.563,0.771,-0.214,-3.479,1.648,5.310

-0.962,1.274,-0.532,-88.928,-27.832,55.420
-0.998,1.276,-0.602,-113.831,-33.264,65.918
-0.956,1.288,-0.659,-141.602,-35.095,70.496
-0.994,1.271,-0.729,-170.837,-30.396,77.271
-1.074,1.239,-0.766,-191.162,-24.353,87.219
-1.132,1.298,-0.771,-200.256,-23.010,94.788
-1.226,1.344,-0.818,-208.923,-23.071,105.774
-1.329,1.345,-0.869,-218.872,-20.508,120.544
-1.378,1.326,-0.921,-225.098,-13.062,135.559
-1.382,1.266,-0.952,-224.304,-0.732,150.757
-1.339,1.222,-0.988,-222.229,18.433,165.161
-1.313,1.152,-0.959,-218.079,39.246,183.228
-1.305,1.065,-0.942,-213.928,55.176,200.317
-1.250,0.979,-0.917,-217.651,64.697,208.374
-1.206,0.891,-0.943,-228.333,71.045,209.961
-1.197,0.777,-0.907,-237.671,78.064,211.304
-1.193,0.679,-0.839,-234.863,84.167,211.243
-1.193,0.608,-0.828,-224.365,88.989,211.731
-1.159,0.532,-0.842,-210.144,94.360,216.614
-1.118,0.474,-0.852,-195.435,103.088,222.046
-1.078,0.427,-0.849,-184.204,114.197,224.976
-1.029,0.404,-0.846,-176.514,123.047,227.173
-0.975,0.343,-0.858,-174.133,131.104,230.408
-0.942,0.282,-0.894,-179.260,140.198,231.995
-0.891,0.246,-0.883,-185.486,147.522,230.652
-0.845,0.198,-0.920,-192.383,153.992,227.844
-0.800,0.155,-0.927,-202.698,162.354,222.595
-0.755,0.127,-0.908,-209.900,172.546,217.590
-0.743,0.102,-0.918,-217.163,184.204,213.257
-0.731,0.103,-0.889,-224.792,194.946,209.106
-0.719,0.070,-0.867,-225.159,205.139,205.139
-0.697,0.051,-0.831,-216.553,216.980,201.965
-0.667,0.062,-0.776,-205.627,230.835,201.233
-0.624,0.083,-0.725,-198.120,244.019,201.782
-0.617,0.094,-0.663,-197.266,253.357,200.439
-0.608,0.100,-0.598,-197.571,256.714,197.510
-0.562,0.123,-0.513,-196.228,256.592,195.312
-0.523,0.140,-0.487,-196.777,257.751,195.740
-0.480,0.139,-0.448,-197.021,259.705,197.327
-0.444,0.112,-0.398,-193.787,260.498,198.242
-0.392,0.080,-0.365,-191.223,260.132,197.937
-0.323,0.093,-0.339,-188.110,259.094,196.838
-0.272,0.096,-0.320,-185.791,257.629,196.838
-0.225,0.092,-0.286,-182.983,256.470,197.937
-0.169,0.098,-0.238,-182.068,255.066,197.937
-0.108,0.111,-0.238,-184.021,256.042,197.876
-0.068,0.103,-0.187,-182.068,258.667,197.693
-0.022,0.096,-0.108,-176.025,260.864,197.327
-0.001,0.100,-0.036,-171.143,262.390,199.402
0.027,0.057,0.032,-165.894,259.949,201.599
0.077,0.039,0.106,-160.217,251.526,199.341
0.119,0.052,0.161,-154.297,241.089,198.486
0.180,0.064,0.213,-148.499,229.431,200.500
0.273,0.048,0.264,-143.188,216.736,203.125
0.394,0.047,0.286,-137.146,204.346,204.651
0.503,0.048,0.294,-130.127,192.139,204.895
0.595,0.044,0.313,-123.413,181.091,202.637
0.646,0.049,0.339,-114.868,171.936,198.364
0.677,0.052,0.349,-105.042,164.490,194.458
0.707,0.079,0.347,-94.543,157.043,190.063
0.711,0.097,0.359,-85.083,148.926,184.692
0.722,0.128,0.346,-77.209,141.052,180.481
0.764,0.180,0.337,-66.772,132.690,177.490
0.795,0.194,0.363,-56.458,123.718,176.208
0.849,0.183,0.384,-55.115,116.882,175.415
0.878,0.158,0.440,-57.068,111.206,172.241
0.921,0.136,0.470,-59.021,106.750,167.847
0.961,0.113,0.495,-61.096,100.464,161.682
0.986,0.132,0.495,-62.805,92.163,153.442
1.002,0.169,0.527,-64.087,82.825,145.935
1.033,0.255,0.501,-67.444,73.181,143.127
1.076,0.286,0.534,-75.745,65.247,142.639
1.119,0.248,0.598,-80.383,56.396,136.719
1.172,0.217,0.672,-79.224,47.607,128.235
1.255,0.168,0.734,-74.585,38.330,124.451
1.358,0.098,0.803,-67.566,31.677,118.408
1.413,0.000,0.928,-60.486,23.926,106.323
1.441,-0.014,1.000,-52.734,13.916,90.393
1.423,0.039,0.948,-38.025,14.709,83.252
1.411,0.083,0.972,-24.902,20.203,76.294
1.385,0.104,1.058,-22.095,19.226,61.035
1.320,0.100,1.181,-24.902,8.850,42.419
1.275,0.063,1.262,-22.095,-3.174,28.137
1.222,0.010,1.296,-11.536,-12.329,19.165
1.141,-0.041,1.290,-0.427,-20.935,11.230
1.024,-0.073,1.251,7.568,-30.090,1.099
0.886,-0.115,1.206,15.503,-37.598,-8.484
0.768,-0.121,1.097,23.987,-38.513,-15.381
0.658,-0.097,1.004,27.893,-36.987,-21.301
0.566,-0.058,0.942,26.978,-36.682,-27.222
0.473,-0.033,0.877,24.475,-34.241,-27.466
0.417,-0.002,0.808,21.912,-30.579,-23.560
0.378,0.002,0.778,22.034,-26.306,-18.738
0.374,-0.027,0.784,23.254,-22.034,-12.512
0.409,-0.089,0.814,23.987,-18.738,-7.141
0.445,-0.145,0.850,23.437,-16.296,-3.540
0.485,-0.178,0.870,22.339,-14.343,-2.197
0.540,-0.186,0.873,22.156,-11.841,-1.770
0.582,-0.174,0.885,22.400,-9.216,-2.197
0.593,-0.177,0.908,24.048,-6.775,-2.380
0.596,-0.168,0.912,25.269,-5.310,-3.296
0.592,-0.150,0.895,23.560,-5.859,-5.371
0.583,-0.136,0.867,21.118,-7.874,-7.385
0.559,-0.124,0.835,18.127,-9.338,-8.972
0.529,-0.129,0.816,16.785,-9.460,-9.766
0.507,-0.125,0.805,15.991,-9.094,-10.193
0.494,-0.134,0.794,15.869,-7.568,-10.132
0.486,-0.141,0.786,15.320,-6.775,-10.193
0.486,-0.149,0.780,15.381,-5.554,-10.681
0.492,-0.160,0.790,17.029,-3.723,-11.475
0.498,-0.174,0.815,19.897,-2.014,-11.108
0.514,-0.183,0.829,22.522,-1.892,-11.841
0.531,-0.163,0.836,25.146,-1.648,-13.733
0.564,-0.137,0.859,26.855,-2.747,-16.541
0.608,-0.120,0.892,29.907,-2.869,-18.494
0.677,-0.104,0.935,33.997,-3.906,-20.630
0.764,-0.109,0.982,39.124,-6.042,-23.743
0.855,-0.126,1.037,46.021,-9.338,-28.992
0.942,-0.164,1.090,55.359,-13.611,-34.668

1.237,-0.207,1.217,104.736,-31.738,-70.618
1.324,-0.231,1.242,128.113,-38.391,-89.111
1.400,-0.259,1.260,154.175,-44.556,-112.549
1.453,-0.273,1.244,178.650,-50.537,-140.137
1.491,-0.292,1.229,202.332,-56.335,-170.532
1.504,-0.289,1.177,224.060,-62.500,-202.820
1.491,-0.272,1.125,242.371,-68.359,-231.873
1.457,-0.202,1.059,257.141,-74.524,-251.892
1.354,-0.164,0.996,271.423,-84.412,-260.193
1.288,-0.030,0.965,281.677,-97.534,-273.926
1.188,0.082,0.851,275.757,-113.464,-265.320
1.048,0.144,0.739,250.549,-121.277,-270.447
0.929,0.151,0.634,227.844,-123.901,-276.184
0.824,0.141,0.548,211.243,-123.535,-275.940
0.687,0.118,0.451,195.679,-120.361,-271.484
0.535,0.069,0.397,184.448,-115.234,-267.334
0.379,0.037,0.331,178.589,-109.741,-262.939
0.233,0.009,0.257,175.659,-105.591,-258.057
0.119,-0.031,0.194,173.645,-103.943,-255.005
0.037,-0.053,0.136,171.631,-104.858,-254.883
-0.034,-0.056,0.091,169.556,-109.436,-253.906
-0.094,-0.061,0.061,165.222,-115.967,-250.366
-0.154,-0.095,0.022,154.785,-119.324,-247.131
-0.221,-0.150,-0.004,145.325,-119.080,-244.629
-0.291,-0.192,-0.017,138.977,-118.591,-239.685
-0.345,-0.237,-0.006,136.902,-119.507,-232.910
-0.376,-0.303,-0.004,136.475,-120.422,-227.783
-0.387,-0.358,-0.031,135.986,-120.911,-226.440
-0.381,-0.395,-0.063,137.573,-123.657,-227.966
-0.367,-0.404,-0.078,142.578,-129.700,-228.638
-0.347,-0.415,-0.088,147.522,-135.620,-229.736
-0.317,-0.425,-0.102,149.536,-139.099,-232.605
-0.312,-0.411,-0.110,147.461,-139.526,-236.816
-0.354,-0.348,-0.102,144.043,-139.465,-239.441
-0.414,-0.289,-0.097,140.991,-141.052,-242.554
-0.472,-0.213,-0.116,137.512,-146.484,-247.009
-0.521,-0.117,-0.159,135.071,-156.433,-250.183
-0.540,-0.033,-0.208,134.094,-167.297,-251.831
-0.523,0.025,-0.240,134.766,-173.706,-250.488
-0.490,0.045,-0.260,140.381,-172.363,-246.216
-0.454,0.032,-0.280,147.461,-162.720,-239.441
-0.400,0.034,-0.289,152.222,-147.705,-232.422
-0.373,0.081,-0.277,158.630,-130.249,-223.145
-0.403,0.155,-0.228,166.809,-117.065,-213.013
-0.432,0.262,-0.206,182.373,-112.793,-204.041
-0.457,0.327,-0.260,204.102,-113.831,-203.979
-0.454,0.347,-0.341,211.182,-121.033,-215.637
-0.433,0.375,-0.404,202.209,-131.897,-226.929
-0.412,0.398,-0.437,190.613,-141.052,-234.192
-0.372,0.447,-0.457,180.603,-144.409,-237.915
-0.369,0.481,-0.490,182.312,-139.343,-241.394
-0.379,0.570,-0.505,189.453,-129.883,-241.150
-0.391,0.637,-0.536,198.669,-118.713,-234.558
-0.401,0.751,-0.492,196.960,-109.253,-228.027
-0.424,0.875,-0.481,204.041,-98.572,-216.492
-0.464,0.961,-0.476,215.698,-88.562,-208.435
-0.471,1.019,-0.491,223.816,-80.383,-204.224
-0.472,1.056,-0.496,226.929,-70.679,-200.134
-0.494,1.088,-0.492,223.450,-61.584,-195.862
-0.520,1.134,-0.477,216.064,-54.504,-194.092
-0.527,1.179,-0.480,209.534,-47.607,-194.946
-0.497,1.246,-0.474,206.848,-40.283,-197.937
-0.479,1.322,-0.474,205.811,-37.292,-194.763
-0.508,1.365,-0.519,197.815,-36.011,-184.509
-0.541,1.383,-0.563,183.289,-32.959,-174.072
-0.547,1.407,-0.589,169.434,-28.992,-163.696
-0.583,1.456,-0.609,158.325,-24.902,-153.320
-0.614,1.488,-0.641,151.367,-20.203,-143.921
-0.655,1.558,-0.681,146.179,-14.526,-131.714
-0.711,1.615,-0.711,143.921,-9.766,-114.990
-0.751,1.658,-0.737,141.968,-6.226,-101.196
-0.790,1.706,-0.773,135.254,-4.700,-91.614
-0.827,1.753,-0.805,121.582,-4.639,-85.022
-0.852,1.764,-0.834,104.309,-4.639,-79.651
-0.900,1.788,-0.852,86.487,-3.601,-77.271
-0.890,1.816,-0.861,70.801,-3.357,-68.176
-0.888,1.792,-0.881,51.331,-4.211,-50.903
-0.905,1.762,-0.901,27.466,-2.075,-35.034
-0.898,1.688,-0.907,8.301,2.686,-19.165
-0.866,1.597,-0.877,-4.822,9.888,-5.554
-0.835,1.502,-0.803,-13.550,17.761,4.150
-0.813,1.410,-0.725,-23.071,24.902,13.123
-0.791,1.304,-0.636,-33.020,29.724,20.508
-0.769,1.202,-0.561,-40.710,32.410,22.278
-0.759,1.140,-0.493,-47.974,31.555,23.071
-0.759,1.090,-0.408,-53.101,28.748,25.085
-0.757,1.040,-0.335,-55.237,26.794,28.137
-0.749,0.987,-0.285,-52.917,25.635,32.043
-0.728,0.923,-0.249,-47.913,24.414,35.706
-0.701,0.875,-0.231,-42.175,23.621,39.001
-0.677,0.838,-0.224,-36.377,22.461,41.199
-0.654,0.814,-0.222,-32.166,19.470,40.833
-0.633,0.786,-0.232,-30.457,15.076,39.001
-0.610,0.758,-0.241,-30.212,11.047,35.889
-0.591,0.737,-0.243,-30.151,8.667,32.410
-0.581,0.723,-0.242,-29.114,7.507,29.297
-0.574,0.714,-0.243,-27.588,7.385,26.184
-0.569,0.715,-0.246,-25.757,7.874,24.414
-0.568,0.723,-0.237,-23.376,8.484,25.085
-0.569,0.727,-0.224,-21.362,7.324,28.259
-0.558,0.708,-0.223,-20.325,5.066,31.616
-0.540,0.686,-0.226,-20.325,3.174,33.875
-0.518,0.663,-0.227,-20.508,2.014,35.400
-0.496,0.643,-0.229,-20.508,0.977,35.156
-0.484,0.618,-0.239,-20.447,0.793,33.447
-0.472,0.596,-0.252,-20.447,0.854,31.067
-0.464,0.579,-0.259,-19.409,0.366,29.358
-0.452,0.566,-0.265,-18.494,-0.122,26.978
-0.445,0.561,-0.275,-18.555,0.305,24.292
-0.444,0.554,-0.281,-18.188,0.122,22.583
-0.442,0.545,-0.292,-17.700,-0.366,20.081
-0.435,0.540,-0.303,-17.578,-0.916,16.785
-0.437,0.545,-0.307,-16.479,-1.770,14.465
-0.442,0.544,-0.315,-14.587,-2.625,12.939
-0.444,0.539,-0.329,-12.573,-2.808,10.925
-0.445,0.543,-0.338,-9.888,-2.319,9.094
-0.452,0.545,-0.346,-7.019,-2.441,7.874
-0.454,0.540,-0.353,-4.517,-2.930,4.883
-0.453,0.541,-0.363,-2.380,-2.991,1.343

-0.813,1.017,-0.836,-86.731,19.775,78.064
-0.894,1.042,-0.867,-110.718,27.283,90.393
-1.007,1.052,-0.897,-133.789,32.288,96.497
-1.115,1.101,-0.921,-153.992,34.790,100.464
-1.276,1.185,-0.990,-174.744,35.583,107.849
-1.430,1.217,-1.074,-191.345,35.461,116.699
-1.539,1.263,-1.142,-201.721,36.438,127.869
-1.614,1.275,-1.184,-209.595,41.748,143.188
-1.664,1.217,-1.213,-212.830,51.086,159.546
-1.676,1.161,-1.255,-213.440,62.500,174.194
-1.650,1.089,-1.264,-212.402,75.012,188.354
-1.612,1.015,-1.241,-209.351,87.097,199.829
-1.570,0.963,-1.185,-207.581,95.581,209.717
-1.548,0.872,-1.133,-211.487,100.830,217.285
-1.502,0.791,-1.040,-215.454,104.553,220.642
-1.441,0.750,-0.949,-215.576,109.985,225.525
-1.431,0.670,-0.877,-216.064,116.150,233.398
-1.428,0.617,-0.827,-213.684,117.554,239.990
-1.375,0.664,-0.833,-213.135,116.089,244.324
-1.299,0.674,-0.887,-220.093,116.760,249.207
-1.197,0.656,-0.958,-232.910,123.230,256.042
-1.115,0.584,-0.953,-242.859,136.230,262.939
-1.003,0.480,-0.895,-246.399,154.419,268.127
-0.923,0.399,-0.817,-243.286,172.729,268.677
-0.877,0.334,-0.735,-237.244,186.096,266.235
-0.851,0.289,-0.673,-231.628,193.237,262.634
-0.828,0.295,-0.648,-225.952,196.350,258.789
-0.795,0.326,-0.665,-225.220,198.669,256.409
-0.745,0.343,-0.689,-228.027,202.576,255.676
-0.717,0.384,-0.728,-231.384,210.327,257.141
-0.652,0.381,-0.703,-233.521,220.703,259.888
-0.606,0.373,-0.647,-234.253,232.056,260.742
-0.573,0.368,-0.583,-231.567,241.577,260.193
-0.513,0.432,-0.571,-230.591,247.253,259.094
-0.449,0.415,-0.486,-231.323,250.732,259.216
-0.375,0.419,-0.414,-226.990,252.686,259.705
-0.290,0.415,-0.347,-221.558,257.324,261.047
-0.209,0.383,-0.263,-216.125,261.780,260.376
-0.117,0.358,-0.200,-211.243,261.780,256.104
0.003,0.382,-0.175,-205.994,258.911,252.380
0.098,0.432,-0.146,-199.890,256.714,250.732
0.157,0.509,-0.128,-192.688,256.287,252.380
0.266,0.561,-0.093,-186.401,253.967,256.775
0.391,0.523,-0.029,-182.800,248.047,260.376
0.506,0.396,0.050,-176.086,241.211,262.756
0.659,0.281,0.111,-163.940,233.398,261.536
0.787,0.221,0.165,-154.724,224.731,254.578
0.891,0.175,0.215,-150.269,217.896,246.582
0.974,0.155,0.276,-143.188,210.266,236.572
1.037,0.140,0.297,-138.916,201.111,224.976
1.131,0.157,0.328,-132.385,188.232,215.149
1.218,0.172,0.355,-126.343,174.744,207.520
1.287,0.157,0.368,-119.324,160.828,198.792
1.360,0.104,0.416,-111.389,145.325,189.514
1.403,0.022,0.502,-101.501,128.540,177.368
1.422,-0.055,0.550,-85.876,112.244,167.664
1.415,-0.073,0.512,-70.740,95.154,156.250
1.372,-0.126,0.512,-58.594,76.965,141.602
1.363,-0.134,0.504,-47.180,60.059,125.305
1.419,-0.056,0.473,-38.513,45.166,111.328
1.455,-0.002,0.490,-35.767,31.555,97.046
1.419,0.044,0.492,-40.649,21.484,81.421
1.366,0.109,0.489,-45.288,15.198,68.237
1.315,0.142,0.530,-43.579,7.629,57.068
1.307,0.133,0.596,-40.833,0.549,46.814
1.305,0.063,0.719,-36.377,-4.761,38.269
1.328,-0.052,0.893,-28.503,-7.812,29.785
1.330,-0.212,1.072,-15.625,-8.728,19.226
1.295,-0.295,1.179,0.977,-9.705,6.531
1.194,-0.287,1.214,17.090,-13.123,-7.996
1.060,-0.234,1.221,29.053,-18.799,-22.156
0.891,-0.212,1.240,39.673,-25.818,-30.701
0.768,-0.187,1.180,46.814,-33.936,-32.471
0.652,-0.195,1.071,45.349,-44.495,-30.884
0.519,-0.277,0.982,40.466,-52.063,-27.771
0.406,-0.373,0.864,36.865,-52.002,-24.048
0.339,-0.427,0.761,35.583,-48.218,-20.142
0.255,-0.463,0.695,34.241,-41.748,-17.456
0.227,-0.495,0.690,33.630,-33.264,-14.282
0.217,-0.506,0.705,34.241,-23.743,-10.071
0.230,-0.500,0.732,33.447,-15.564,-4.272
0.281,-0.494,0.759,30.823,-12.268,0.427
0.368,-0.495,0.801,26.917,-11.353,5.188
0.445,-0.513,0.844,23.804,-9.521,9.766
0.512,-0.527,0.867,21.179,-7.996,12.939
0.588,-0.537,0.886,19.348,-7.996,14.099
0.659,-0.550,0.880,18.677,-7.690,12.939
0.714,-0.560,0.870,18.982,-5.920,9.399
0.719,-0.550,0.862,20.020,-1.831,4.150
0.667,-0.503,0.853,20.813,2.686,-1.526
0.551,-0.450,0.854,21.179,4.700,-6.104
0.448,-0.407,0.836,20.020,2.014,-7.935
0.365,-0.385,0.796,16.846,-3.052,-8.484
0.319,-0.387,0.759,13.794,-8.118,-6.958
0.306,-0.397,0.719,11.169,-10.986,-4.211
0.315,-0.392,0.685,9.155,-10.925,-2.441
0.330,-0.396,0.671,8.911,-8.423,-0.854
0.361,-0.392,0.679,9.033,-4.700,-0.183
0.389,-0.394,0.693,7.751,-1.038,-1.160
0.432,-0.404,0.710,6.836,2.625,-1.831
0.449,-0.434,0.751,6.592,4.944,-2.197
0.449,-0.443,0.772,7.385,5.798,-3.418
0.470,-0.426,0.756,9.216,5.066,-5.066
0.484,-0.426,0.760,10.132,3.784,-6.470
0.488,-0.439,0.786,11.658,1.953,-8.057
0.499,-0.445,0.801,14.648,0.122,-9.338
0.506,-0.432,0.791,17.456,-2.014,-11.169
0.501,-0.421,0.777,18.921,-4.272,-13.489
0.503,-0.421,0.774,21.179,-5.066,-14.709
0.515,-0.442,0.779,23.621,-5.310,-14.587
0.529,-0.475,0.786,24.902,-5.371,-14.465
0.551,-0.499,0.804,26.917,-5.310,-15.381
0.585,-0.502,0.836,29.907,-5.920,-17.212
0.618,-0.505,0.856,32.837,-7.019,-19.287
0.649,-0.500,0.875,37.109,-10.254,-21.912
0.693,-0.480,0.878,41.382,-15.198,-25.269
0.743,-0.484,0.884,45.898,-19.775,-28.748
0.797,-0.507,0.893,51.086,-23.376,-32.715
0.877,-0.502,0.912,59.875,-26.245,-37.842

1.168,-0.617,0.978,96.130,-35.156,-66.895
1.270,-0.614,0.980,109.497,-39.429,-82.397
1.344,-0.605,0.999,123.413,-43.152,-99.792
1.386,-0.559,1.028,137.024,-46.387,-118.958
1.396,-0.517,1.033,148.926,-51.819,-139.526
1.418,-0.477,1.037,157.349,-62.134,-161.377
1.409,-0.283,0.914,147.888,-73.547,-173.218
1.281,-0.291,0.753,131.958,-81.116,-178.223
1.183,-0.304,0.679,126.587,-88.562,-185.364
1.111,-0.323,0.609,127.747,-92.834,-193.848
1.019,-0.341,0.545,129.272,-94.849,-205.566
0.908,-0.318,0.516,131.409,-97.717,-218.140
0.775,-0.317,0.527,136.597,-101.013,-227.173
0.652,-0.312,0.548,146.301,-103.577,-236.694
0.554,-0.277,0.557,161.194,-106.628,-247.742
0.491,-0.196,0.550,177.673,-113.037,-260.498
0.476,-0.073,0.520,191.467,-122.620,-269.409
0.373,0.035,0.441,198.181,-133.362,-266.968
0.297,0.102,0.284,192.017,-141.418,-264.587
0.211,0.111,0.124,181.396,-146.301,-262.268
0.139,0.077,0.001,168.701,-145.142,-258.423
0.070,0.043,-0.088,157.104,-135.498,-254.150
-0.005,0.022,-0.125,151.062,-120.850,-250.305
-0.080,0.003,-0.114,149.231,-105.896,-248.474
-0.148,-0.027,-0.056,148.376,-96.008,-248.901
-0.221,-0.078,0.026,150.269,-92.896,-252.747
-0.288,-0.044,0.046,158.936,-97.778,-257.141
-0.317,0.043,0.039,172.485,-112.000,-260.254
-0.331,0.092,0.015,181.702,-132.202,-263.428
-0.322,0.095,-0.055,181.458,-155.151,-265.137
-0.273,0.089,-0.175,171.387,-174.500,-268.005
-0.232,0.049,-0.274,160.034,-183.472,-271.851
-0.224,0.023,-0.303,156.738,-181.702,-275.696
-0.256,0.062,-0.293,162.048,-172.119,-278.442
-0.311,0.150,-0.285,172.180,-161.743,-280.945
-0.360,0.237,-0.238,183.716,-156.555,-285.339
-0.406,0.309,-0.200,191.650,-157.227,-293.152
-0.425,0.345,-0.201,195.557,-164.307,-304.443
-0.429,0.389,-0.236,198.853,-179.993,-316.040
-0.393,0.402,-0.354,201.660,-199.036,-326.660
-0.318,0.484,-0.471,195.557,-211.731,-334.656
-0.269,0.580,-0.589,192.566,-215.088,-337.769
-0.248,0.703,-0.639,198.730,-208.435,-332.458
-0.306,0.829,-0.642,222.473,-193.481,-319.092
-0.370,0.948,-0.653,248.169,-174.438,-301.941
-0.423,1.040,-0.675,269.104,-156.006,-287.964
-0.436,1.129,-0.700,278.748,-138.855,-273.132
-0.492,1.130,-0.730,278.748,-121.765,-260.620
-0.530,1.221,-0.700,259.216,-107.300,-252.319
-0.596,1.341,-0.702,241.943,-98.267,-234.192
-0.655,1.396,-0.724,229.370,-94.910,-221.436
-0.661,1.424,-0.797,213.989,-85.938,-211.792
-0.704,1.485,-0.880,200.745,-67.993,-198.792
-0.778,1.535,-0.919,188.599,-47.363,-183.594
-0.815,1.546,-0.931,174.255,-28.381,-168.884
-0.826,1.528,-0.906,162.659,-10.925,-152.954
-0.814,1.486,-0.843,154.175,5.676,-136.719
-0.837,1.468,-0.751,145.874,19.043,-120.789
-0.891,1.433,-0.673,136.475,22.339,-107.910
-0.934,1.412,-0.616,121.033,16.479,-102.356
-0.957,1.402,-0.587,105.286,5.981,-98.328
-0.980,1.393,-0.584,95.886,-0.305,-93.567
-0.990,1.398,-0.580,91.309,-1.892,-88.074
-0.990,1.402,-0.587,89.111,-3.540,-82.275
-0.983,1.397,-0.616,85.449,-5.005,-75.867
-0.981,1.406,-0.649,80.261,-5.554,-68.481
-0.968,1.405,-0.682,72.693,-6.958,-58.960
-0.955,1.401,-0.718,61.584,-8.057,-50.781
-0.940,1.372,-0.766,48.035,-8.179,-42.603
-0.935,1.376,-0.812,32.837,-7.996,-35.461
-0.966,1.394,-0.844,22.095,-6.775,-28.748
-0.952,1.415,-0.829,12.878,-3.967,-19.775
-0.952,1.394,-0.809,5.249,1.709,-8.850
-0.948,1.351,-0.765,-1.831,8.850,0.916
-0.928,1.305,-0.715,-6.104,15.625,10.925
-0.887,1.237,-0.643,-8.972,19.287,18.066
-0.836,1.143,-0.586,-13.367,19.653,22.400
-0.797,1.071,-0.540,-18.921,17.578,24.048
-0.756,1.020,-0.503,-24.048,13.245,23.499
-0.713,0.970,-0.476,-28.931,7.935,22.339
-0.676,0.924,-0.456,-32.349,5.005,21.790
-0.646,0.889,-0.431,-31.982,4.822,22.400
-0.619,0.863,-0.406,-28.503,6.042,24.414
-0.590,0.835,-0.393,-23.804,7.996,27.405
-0.563,0.806,-0.388,-19.531,10.132,29.785
-0.534,0.784,-0.383,-17.029,12.024,31.067
-0.514,0.770,-0.369,-15.991,12.878,32.043
-0.501,0.751,-0.357,-16.541,11.902,33.081
-0.495,0.727,-0.344,-18.860,11.108,33.020
-0.485,0.707,-0.332,-21.362,10.254,32.898
-0.478,0.690,-0.316,-23.254,9.216,32.776
-0.468,0.662,-0.311,-24.780,8.850,32.837
-0.458,0.635,-0.314,-24.780,10.010,32.410
-0.451,0.611,-0.312,-23.193,10.925,31.982
-0.448,0.595,-0.306,-20.996,11.963,31.311
-0.455,0.583,-0.302,-19.165,12.207,30.518
-0.467,0.571,-0.298,-18.311,11.047,29.053
-0.469,0.551,-0.303,-18.921,8.972,26.306
-0.472,0.532,-0.301,-19.409,7.629,23.010
-0.473,0.524,-0.287,-18.860,6.653,21.057
-0.480,0.521,-0.277,-18.250,4.822,19.653
-0.486,0.506,-0.286,-18.555,2.686,16.785
-0.488,0.491,-0.297,-17.822,1.282,13.672
-0.486,0.481,-0.301,-15.442,-0.061,10.132
-0.486,0.481,-0.305,-11.719,-0.305,6.714
-0.490,0.491,-0.309,-6.958,-1.160,4.578
-0.498,0.499,-0.328,-3.418,-2.563,2.258
-0.506,0.506,-0.355,-1.831,-3.052,-0.671
-0.508,0.521,-0.369,0.549,-3.235,-2.808
-0.509,0.542,-0.377,3.540,-3.113,-5.493
-0.518,0.567,-0.383,6.592,-2.563,-8.301
-0.532,0.592,-0.391,9.521,-2.319,-10.742
-0.548,0.617,-0.403,11.292,-2.258,-12.146
-0.563,0.642,-0.411,12.207,-1.831,-13.245
-0.580,0.670,-0.410,12.817,-1.526,-14.099
-0.603,0.702,-0.405,14.221,-2.502,-13.306
-0.613,0.719,-0.408,14.526,-4.944,-12.085
-0.614,0.735,-0.425,13.306,-6.042,-12.207
-0.614,0.747,-0.444,11.780,-6.226,-12.024

-0.884,1.189,-0.839,-38.574,-9.155,23.743
-0.955,1.358,-0.967,-63.477,-5.310,42.480
-0.935,1.476,-1.080,-97.412,5.737,69.702
-0.922,1.494,-1.149,-141.113,23.193,100.342
-0.916,1.394,-1.128,-188.293,44.617,123.047
-1.013,1.341,-1.083,-230.469,61.584,141.479
-1.177,1.304,-1.042,-256.897,72.815,156.677
-1.324,1.249,-1.004,-265.076,78.918,168.152
-1.403,1.304,-1.025,-264.954,86.304,180.359
-1.466,1.239,-1.038,-264.648,95.459,202.393
-1.467,1.113,-1.019,-262.207,105.347,219.238
-1.489,0.970,-1.025,-262.024,110.413,227.539
-1.522,0.821,-0.998,-260.193,108.276,227.661
-1.518,0.740,-0.956,-250.610,100.708,224.792
-1.505,0.691,-0.959,-235.901,95.825,226.685
-1.487,0.627,-0.958,-222.839,93.079,232.422
-1.421,0.552,-0.938,-212.769,92.407,235.657
-1.385,0.505,-0.901,-204.956,93.628,235.657
-1.348,0.458,-0.840,-198.914,94.971,237.305
-1.300,0.424,-0.785,-193.054,95.825,237.793
-1.246,0.404,-0.773,-192.200,97.473,237.366
-1.190,0.382,-0.736,-196.045,98.328,236.694
-1.095,0.391,-0.719,-197.021,97.656,235.840
-1.004,0.336,-0.711,-197.571,101.074,239.441
-0.906,0.241,-0.675,-196.899,109.680,242.554
-0.827,0.174,-0.608,-194.885,120.300,241.028
-0.783,0.148,-0.582,-193.359,129.272,236.816
-0.755,0.138,-0.601,-191.711,135.254,235.352
-0.665,0.127,-0.625,-189.514,139.709,235.657
-0.553,0.139,-0.645,-193.542,146.606,232.971
-0.490,0.157,-0.645,-202.515,157.715,228.821
-0.474,0.119,-0.582,-207.397,170.959,226.807
-0.466,0.139,-0.514,-204.834,181.641,225.037
-0.444,0.183,-0.513,-203.796,189.636,225.586
-0.425,0.188,-0.533,-204.529,195.862,228.699
-0.359,0.198,-0.518,-204.285,201.294,231.323
-0.310,0.163,-0.453,-206.299,206.055,233.032
-0.271,0.076,-0.417,-207.153,211.487,232.971
-0.201,0.061,-0.385,-201.660,214.050,229.858
-0.136,0.097,-0.372,-198.547,214.966,224.121
-0.078,0.170,-0.344,-199.158,216.675,217.041
-0.043,0.232,-0.287,-200.195,219.971,215.027
0.009,0.312,-0.228,-200.745,222.168,217.407
0.088,0.341,-0.175,-203.186,221.191,220.886
0.156,0.359,-0.101,-205.750,218.567,224.670
0.210,0.337,-0.005,-203.796,214.844,229.248
0.323,0.318,0.075,-195.312,207.947,232.117
0.439,0.306,0.147,-191.772,199.097,231.689
0.511,0.257,0.215,-194.580,190.247,227.905
0.583,0.192,0.301,-188.965,182.312,224.792
0.658,0.136,0.370,-180.054,176.453,221.863
0.690,0.120,0.423,-174.011,171.509,216.675
0.678,0.104,0.444,-168.884,165.527,210.693
0.717,0.129,0.416,-160.278,159.119,205.383
0.783,0.161,0.410,-151.428,150.208,199.036
0.830,0.193,0.439,-148.315,141.174,190.735
0.886,0.201,0.484,-144.775,135.315,183.777
0.960,0.206,0.539,-137.268,128.662,177.734
1.041,0.190,0.613,-129.700,119.751,172.668
1.147,0.168,0.706,-120.361,108.704,166.931
1.313,0.161,0.831,-108.887,96.130,158.813
1.506,0.104,0.995,-94.849,83.862,147.400
1.737,-0.007,1.112,-79.041,75.134,136.780
1.897,-0.190,1.379,-63.538,60.974,118.225
2.078,-0.242,1.441,-37.781,44.006,94.177
2.133,-0.339,1.412,-5.859,41.199,80.322
2.129,-0.396,1.413,12.634,37.292,62.378
2.027,-0.424,1.425,15.808,24.109,32.532
1.845,-0.409,1.402,12.512,2.869,-0.122
1.633,-0.353,1.336,17.151,-17.944,-24.353
1.399,-0.322,1.174,25.208,-31.921,-40.466
1.149,-0.317,1.023,30.457,-42.358,-54.688
0.896,-0.324,0.888,33.936,-52.856,-67.566
0.590,-0.345,0.737,31.555,-57.312,-76.782
0.279,-0.363,0.583,25.574,-54.871,-80.933
-0.039,-0.332,0.473,19.287,-46.570,-83.435
-0.328,-0.275,0.357,11.841,-33.081,-79.163
-0.551,-0.180,0.249,7.080,-17.883,-67.017
-0.672,-0.130,0.217,8.362,-6.409,-49.683
-0.613,-0.150,0.292,10.864,1.282,-30.029
-0.436,-0.264,0.449,8.301,7.629,-8.484
-0.204,-0.415,0.599,4.272,12.390,11.597
0.107,-0.500,0.786,10.010,9.705,27.344
0.395,-0.579,0.922,13.550,4.883,35.278
0.646,-0.636,1.015,11.841,0.916,37.048
0.840,-0.698,1.083,10.254,-1.709,34.180
0.968,-0.731,1.122,11.292,-1.587,27.039
0.990,-0.732,1.118,14.038,0.671,18.616
0.943,-0.667,1.057,16.846,3.540,8.667
0.846,-0.569,1.008,19.653,2.380,-1.526
0.714,-0.495,0.949,19.897,-0.610,-9.033
0.573,-0.460,0.900,19.653,-3.967,-13.672
0.460,-0.451,0.859,19.836,-7.629,-15.625
0.361,-0.458,0.818,18.677,-11.108,-17.090
0.277,-0.462,0.787,18.616,-13.062,-17.761
0.200,-0.453,0.753,18.860,-12.695,-17.090
0.159,-0.434,0.720,18.311,-12.085,-15.076
0.148,-0.403,0.697,16.724,-11.963,-13.062
0.147,-0.397,0.676,13.367,-11.780,-9.827
0.180,-0.394,0.660,10.254,-11.047,-5.432
0.227,-0.401,0.662,7.812,-10.681,-1.221
0.286,-0.431,0.676,5.188,-9.033,2.258
0.328,-0.473,0.698,3.967,-7.446,4.395
0.375,-0.492,0.713,5.310,-6.409,5.127
0.410,-0.500,0.724,6.592,-5.676,4.028
0.446,-0.502,0.742,7.690,-5.066,2.319
0.460,-0.515,0.757,9.216,-4.272,0.549
0.476,-0.551,0.780,11.902,-2.930,-1.343
0.470,-0.546,0.762,11.841,-1.282,-2.502
0.433,-0.538,0.754,10.010,-0.427,-4.761
0.403,-0.525,0.742,9.949,-0.244,-6.287
0.377,-0.513,0.726,9.094,-0.061,-7.385
0.350,-0.505,0.709,8.545,0.122,-7.812
0.335,-0.498,0.701,8.545,-0.610,-7.080
0.334,-0.508,0.692,7.812,-1.465,-5.188
0.345,-0.521,0.692,7.141,-2.258,-4.395
0.360,-0.538,0.698,7.141,-3.174,-3.113
0.375,-0.545,0.711,7.507,-3.967,-2.747
0.395,-0.550,0.721,6.897,-4.272,-2.808

1.024,-0.603,1.052,40.588,-25.146,-53.711
1.125,-0.569,1.071,49.377,-31.982,-66.650
1.234,-0.553,1.097,61.646,-38.696,-79.651
1.336,-0.542,1.132,76.965,-45.044,-94.849
1.415,-0.530,1.170,92.834,-52.002,-111.938
1.462,-0.532,1.190,108.765,-60.242,-131.836
1.486,-0.534,1.199,126.465,-70.068,-156.189
1.493,-0.559,1.194,145.752,-81.787,-179.382
1.469,-0.532,1.143,157.898,-93.994,-198.730
1.432,-0.431,1.025,160.461,-106.262,-216.431
1.369,-0.330,0.891,161.072,-117.554,-235.840
1.299,-0.171,0.794,164.734,-126.526,-253.906
1.184,-0.028,0.700,167.847,-129.272,-263.672
1.065,0.034,0.601,168.457,-127.197,-271.118
0.952,0.044,0.518,172.119,-123.901,-277.527
0.802,0.049,0.494,180.725,-121.338,-284.485
0.685,0.067,0.482,191.956,-118.896,-294.617
0.541,0.102,0.472,203.430,-116.760,-306.824
0.377,0.164,0.454,213.745,-118.286,-314.087
0.202,0.222,0.451,224.426,-125.793,-315.430
0.066,0.266,0.440,232.239,-137.024,-314.880
-0.023,0.297,0.374,228.455,-146.790,-316.772
-0.081,0.378,0.250,212.219,-154.724,-316.345
-0.105,0.417,0.141,191.345,-160.645,-314.453
-0.176,0.402,-0.028,171.692,-162.537,-309.631
-0.207,0.419,-0.174,161.011,-162.354,-302.856
-0.250,0.436,-0.254,159.973,-161.499,-295.410
-0.333,0.435,-0.287,163.513,-158.264,-285.217
-0.429,0.390,-0.294,168.152,-155.090,-274.353
-0.508,0.349,-0.312,171.875,-154.907,-268.372
-0.544,0.327,-0.336,175.598,-160.217,-268.188
-0.548,0.306,-0.373,180.542,-170.105,-270.447
-0.539,0.260,-0.404,184.998,-179.321,-275.146
-0.509,0.239,-0.434,188.293,-182.678,-282.593
-0.478,0.239,-0.463,189.575,-181.641,-293.213
-0.409,0.286,-0.449,189.697,-177.307,-305.298
-0.406,0.434,-0.422,188.110,-171.631,-309.753
-0.461,0.625,-0.445,184.631,-168.274,-303.589
-0.541,0.794,-0.532,179.932,-166.321,-294.128
-0.623,0.899,-0.618,167.297,-165.649,-280.212
-0.661,0.905,-0.680,153.992,-163.879,-263.733
-0.683,0.801,-0.721,145.203,-156.067,-248.657
-0.662,0.667,-0.722,139.221,-142.395,-239.075
-0.608,0.583,-0.686,141.846,-125.366,-229.431
-0.579,0.544,-0.618,155.151,-108.154,-220.764
-0.561,0.469,-0.586,169.434,-92.102,-218.750
-0.539,0.552,-0.472,158.630,-78.186,-218.994
-0.490,0.717,-0.392,158.630,-72.571,-216.797
-0.498,0.801,-0.374,189.453,-77.698,-224.548
-0.502,0.902,-0.409,218.750,-81.604,-234.741
-0.551,1.014,-0.430,232.300,-81.055,-239.136
-0.602,1.121,-0.416,234.253,-76.233,-241.333
-0.639,1.238,-0.407,234.863,-68.176,-239.319
-0.662,1.361,-0.386,241.455,-60.242,-231.812
-0.704,1.468,-0.353,247.864,-54.260,-219.666
-0.752,1.555,-0.342,248.230,-51.086,-205.017
-0.777,1.610,-0.362,242.187,-51.819,-191.223
-0.759,1.651,-0.394,227.966,-54.321,-179.016
-0.741,1.667,-0.474,207.031,-53.894,-167.603
-0.733,1.687,-0.567,186.218,-47.668,-156.372
-0.704,1.726,-0.632,169.617,-38.513,-145.447
-0.700,1.794,-0.693,153.076,-26.733,-135.376
-0.745,1.897,-0.795,134.338,-13.916,-126.770
-0.927,2.064,-0.990,113.159,-6.104,-114.075
-0.994,2.293,-1.032,86.304,-12.207,-94.177
-1.415,2.702,-1.230,55.725,-21.790,-70.068
-1.596,2.922,-1.348,10.742,-43.579,-47.119
-1.454,2.780,-1.295,-37.659,-53.894,-4.272
-1.071,2.315,-1.051,-66.650,-26.611,37.292
-0.737,1.679,-0.885,-63.599,28.687,89.417
-0.597,1.160,-0.764,-43.274,77.698,122.131
-0.527,0.834,-0.652,-31.189,96.375,122.437
-0.486,0.665,-0.570,-34.912,90.576,98.938
-0.499,0.620,-0.463,-52.429,73.303,65.125
-0.510,0.572,-0.351,-65.369,52.124,32.776
-0.529,0.542,-0.209,-74.890,41.504,18.433
-0.544,0.464,-0.078,-69.763,43.640,22.400
-0.540,0.389,0.033,-50.171,49.927,35.278
-0.521,0.318,0.104,-22.827,53.101,47.424
-0.495,0.261,0.134,2.625,50.842,50.598
-0.471,0.247,0.125,20.508,43.152,42.542
-0.453,0.274,0.099,30.273,29.907,25.635
-0.441,0.335,0.067,35.034,13.855,5.066
-0.445,0.428,0.026,35.828,-1.526,-15.320
-0.461,0.521,-0.014,33.325,-14.160,-33.325
-0.476,0.623,-0.050,29.663,-22.888,-45.532
-0.504,0.713,-0.088,27.283,-29.053,-49.377
-0.529,0.791,-0.146,25.024,-31.494,-47.913
-0.560,0.861,-0.219,22.095,-31.555,-42.847
-0.571,0.922,-0.276,18.311,-29.236,-35.095
-0.587,0.965,-0.335,14.343,-24.475,-26.123
-0.594,0.986,-0.384,10.742,-18.311,-17.883
-0.599,1.007,-0.416,8.484,-11.963,-10.559
-0.609,1.011,-0.434,4.944,-6.775,-3.418
-0.606,0.989,-0.434,1.038,-2.625,2.380
-0.595,0.949,-0.426,-2.014,2.625,8.179
-0.587,0.902,-0.403,-3.662,7.385,12.451
-0.576,0.858,-0.375,-3.418,10.376,15.503
-0.569,0.816,-0.348,-1.465,12.329,16.602
-0.565,0.788,-0.323,1.587,12.329,15.686
-0.565,0.770,-0.310,4.211,11.353,13.245
-0.571,0.762,-0.294,5.005,9.705,10.742
-0.575,0.758,-0.279,5.310,7.812,9.338
-0.568,0.747,-0.262,4.639,6.714,8.850
-0.562,0.745,-0.248,3.296,6.042,8.057
-0.565,0.743,-0.238,1.892,4.883,6.836
-0.563,0.746,-0.228,1.404,3.601,5.005
-0.563,0.757,-0.218,1.221,1.160,3.601
-0.565,0.758,-0.214,0.854,-2.136,2.808
-0.562,0.761,-0.221,0.061,-4.761,0.732
-0.559,0.764,-0.226,-0.488,-6.226,-1.221
-0.548,0.768,-0.234,-0.427,-7.141,-2.014
-0.536,0.769,-0.246,-0.305,-7.507,-1.953
-0.524,0.770,-0.258,0.122,-7.202,-1.709
-0.514,0.768,-0.271,0.000,-6.042,-1.587
-0.509,0.767,-0.279,-0.366,-3.784,-1.099
-0.514,0.766,-0.283,-0.854,-1.587,0.183
-0.522,0.769,-0.280,-1.343,-0.122,1.343
-0.532,0.763,-0.275,-1.404,-0.183,2.380

-1.042,1.521,-0.779,-61.584,-58.899,-18.921
-1.156,1.792,-1.007,-82.886,-68.359,-7.080
-1.181,1.949,-1.185,-109.192,-62.317,17.517
-1.134,1.967,-1.219,-132.568,-44.312,51.758
-1.069,1.933,-1.202,-155.273,-21.118,87.646
-1.043,1.844,-1.169,-179.382,1.404,116.333
-1.039,1.766,-1.081,-199.036,18.677,135.925
-1.035,1.705,-1.015,-218.201,31.067,149.109
-1.064,1.654,-0.952,-233.704,42.236,162.781
-1.092,1.559,-0.918,-243.591,54.077,179.016
-1.113,1.508,-0.918,-248.169,67.200,197.327
-1.111,1.417,-0.880,-246.033,77.454,217.407
-1.069,1.302,-0.820,-243.774,83.435,234.741
-1.032,1.161,-0.765,-245.911,86.731,245.178
-1.032,1.050,-0.718,-249.207,86.975,247.864
-1.047,0.989,-0.680,-247.925,82.886,247.742
-1.012,0.917,-0.666,-242.432,78.064,250.916
-0.997,0.894,-0.663,-236.328,75.500,257.019
-0.990,0.868,-0.662,-228.821,70.435,265.930
-0.951,0.834,-0.656,-221.924,66.467,273.987
-0.910,0.741,-0.675,-215.332,64.026,281.067
-0.832,0.657,-0.717,-208.679,68.054,282.654
-0.803,0.672,-0.768,-206.055,77.332,279.297
-0.800,0.722,-0.802,-207.703,85.144,278.625
-0.773,0.753,-0.864,-210.144,90.088,282.410
-0.699,0.786,-0.913,-216.125,98.511,286.987
-0.649,0.789,-0.906,-226.990,109.863,294.006
-0.581,0.739,-0.882,-235.352,122.009,297.607
-0.522,0.697,-0.842,-244.019,135.071,298.889
-0.476,0.657,-0.761,-253.357,147.217,299.805
-0.441,0.648,-0.669,-254.211,155.273,299.622
-0.382,0.615,-0.616,-251.953,161.133,300.415
-0.280,0.579,-0.562,-254.211,166.016,298.584
-0.210,0.567,-0.480,-259.338,170.166,296.692
-0.158,0.567,-0.422,-266.479,171.570,297.363
-0.057,0.594,-0.411,-273.621,173.035,297.974
0.061,0.615,-0.408,-279.480,179.382,298.462
0.199,0.613,-0.367,-281.372,191.284,301.086
0.315,0.590,-0.278,-283.142,205.383,303.650
0.423,0.568,-0.180,-284.912,216.919,303.955
0.571,0.546,-0.075,-286.316,224.548,302.185
0.707,0.520,0.073,-283.813,225.830,297.241
0.801,0.443,0.264,-273.560,223.877,290.283
0.937,0.419,0.409,-263.489,220.886,285.217
1.031,0.326,0.511,-261.841,218.933,278.748
1.135,0.232,0.580,-261.536,213.989,268.372
1.231,0.149,0.672,-255.615,206.726,256.226
1.362,0.082,0.781,-245.911,197.876,244.507
1.413,-0.012,0.903,-240.051,185.242,227.661
1.443,-0.069,0.984,-234.314,168.762,212.036
1.518,-0.130,1.085,-224.487,148.804,197.815
1.547,-0.131,1.133,-202.942,128.174,180.054
1.514,-0.211,1.124,-179.993,115.479,167.114
1.536,-0.264,1.136,-165.649,99.792,148.621
1.501,-0.293,1.198,-152.832,81.970,127.502
1.425,-0.317,1.138,-138.855,68.237,112.244
1.326,-0.357,1.071,-117.859,63.232,101.746
1.187,-0.426,1.077,-95.764,54.321,84.290
1.025,-0.448,1.077,-86.121,39.917,60.425
0.811,-0.450,1.058,-78.064,22.949,38.391
0.610,-0.398,1.014,-67.017,7.080,22.522
0.419,-0.315,0.908,-56.702,-5.432,13.000
0.270,-0.245,0.804,-47.302,-16.663,8.545
0.180,-0.208,0.725,-38.757,-27.649,6.897
0.182,-0.161,0.668,-32.593,-33.813,7.568
0.193,-0.151,0.675,-28.381,-32.227,11.108
0.212,-0.170,0.693,-25.146,-23.010,17.700
0.280,-0.226,0.728,-19.226,-10.437,24.170
0.405,-0.285,0.785,-11.475,1.587,26.855
0.533,-0.334,0.890,-4.272,12.695,26.550
0.616,-0.421,1.011,1.831,23.804,25.696
0.663,-0.491,1.118,10.071,33.386,24.597
0.728,-0.503,1.172,17.029,35.889,24.170
0.761,-0.512,1.202,20.325,28.564,20.874
0.778,-0.519,1.202,22.583,14.954,15.991
0.783,-0.531,1.175,25.391,-0.305,12.146
0.784,-0.525,1.113,27.832,-14.709,8.118
0.744,-0.529,1.037,28.992,-25.085,3.052
0.671,-0.539,0.929,26.733,-30.884,-0.488
0.597,-0.536,0.826,23.682,-33.813,-3.540
0.510,-0.521,0.744,20.264,-34.424,-8.179
0.420,-0.508,0.668,15.015,-31.494,-10.071
0.354,-0.500,0.617,10.681,-26.001,-10.742
0.316,-0.485,0.578,7.568,-18.677,-11.108
0.284,-0.482,0.568,4.822,-9.583,-10.620
0.249,-0.478,0.600,4.333,-1.404,-9.827
0.215,-0.471,0.658,4.456,5.371,-8.118
0.190,-0.461,0.708,2.625,9.644,-5.981
0.185,-0.471,0.767,0.488,10.010,-3.662
0.201,-0.500,0.828,-0.305,7.629,-2.625
0.250,-0.502,0.857,0.488,4.822,-1.282
0.306,-0.483,0.865,2.136,1.526,0.244
0.358,-0.474,0.852,2.319,-0.183,0.244
0.383,-0.454,0.838,3.540,-0.122,0.000
0.392,-0.427,0.823,5.249,2.014,-0.366
0.403,-0.397,0.808,5.676,4.517,-1.099
0.405,-0.411,0.815,5.005,5.432,-1.953
0.387,-0.452,0.835,5.981,4.639,-2.197
0.376,-0.482,0.841,9.094,3.113,-2.136
0.369,-0.497,0.815,11.047,1.404,-2.625
0.356,-0.516,0.793,12.573,-0.977,-4.456
0.350,-0.533,0.775,14.648,-2.930,-6.470
0.342,-0.553,0.773,18.311,-4.639,-8.240
0.324,-0.564,0.758,22.217,-6.287,-9.888
0.317,-0.552,0.731,25.208,-9.033,-12.024
0.317,-0.529,0.708,26.611,-13.123,-13.489
0.313,-0.500,0.679,26.123,-16.968,-13.000
0.320,-0.480,0.649,24.109,-19.165,-9.888
0.331,-0.472,0.613,18.982,-19.104,-6.958
0.341,-0.487,0.589,12.695,-16.846,-4.395
0.346,-0.510,0.585,7.141,-11.597,-2.258
0.350,-0.550,0.604,3.235,-4.333,-0.916
0.354,-0.583,0.661,1.465,2.625,-1.404
0.341,-0.606,0.719,0.793,8.484,-2.075
0.324,-0.606,0.775,1.831,11.658,-2.319
0.317,-0.589,0.811,3.845,12.085,-2.563
0.332,-0.563,0.822,5.005,10.498,-2.380
0.343,-0.537,0.839,4.761,7.385,-2.197
0.349,-0.519,0.851,4.211,3.967,-1.282

0.873,-0.682,0.990,145.813,-37.354,-103.210
0.887,-0.635,0.996,155.212,-40.100,-118.408
0.855,-0.599,0.992,162.964,-42.603,-130.310
0.841,-0.568,0.976,169.373,-44.800,-134.521
0.800,-0.616,0.945,173.157,-46.753,-131.470
0.761,-0.622,0.903,169.678,-47.607,-141.357
0.732,-0.565,0.864,165.771,-50.720,-148.621
0.671,-0.520,0.844,167.908,-56.824,-152.039
0.647,-0.492,0.795,167.908,-61.218,-156.189
0.635,-0.469,0.727,163.391,-62.012,-161.011
0.614,-0.456,0.689,159.241,-63.171,-165.283
0.598,-0.454,0.656,155.762,-62.561,-168.396
0.571,-0.471,0.598,151.062,-57.800,-172.302
0.540,-0.487,0.569,147.827,-52.734,-177.124
0.491,-0.478,0.530,145.630,-49.438,-181.519
0.458,-0.468,0.517,144.409,-47.241,-183.655
0.386,-0.465,0.494,145.142,-50.293,-186.829
0.347,-0.473,0.464,143.372,-54.993,-190.735
0.297,-0.504,0.425,138.794,-59.387,-195.496
0.258,-0.535,0.381,131.348,-62.378,-202.087
0.224,-0.560,0.330,122.192,-63.599,-209.106
0.181,-0.569,0.298,116.394,-65.674,-216.003
0.149,-0.567,0.282,116.638,-68.787,-222.107
0.114,-0.550,0.267,120.361,-71.167,-228.821
0.065,-0.517,0.263,126.038,-73.120,-234.802
0.013,-0.482,0.255,133.606,-75.439,-240.234
-0.039,-0.448,0.241,141.663,-79.102,-246.887
-0.085,-0.401,0.225,147.095,-84.778,-253.662
-0.129,-0.374,0.219,152.161,-91.980,-260.376
-0.184,-0.339,0.180,156.311,-100.769,-266.052
-0.226,-0.329,0.116,157.837,-111.633,-271.729
-0.244,-0.303,0.043,158.630,-123.352,-279.724
-0.243,-0.264,-0.012,159.607,-134.155,-288.391
-0.249,-0.219,-0.068,160.950,-142.090,-295.715
-0.250,-0.168,-0.133,161.072,-147.278,-302.856
-0.240,-0.126,-0.208,161.621,-149.109,-310.181
-0.236,-0.058,-0.260,163.208,-146.362,-316.345
-0.267,0.039,-0.272,168.152,-138.306,-317.566
-0.340,0.148,-0.272,172.363,-127.869,-315.125
-0.415,0.261,-0.279,175.049,-118.225,-313.354
-0.517,0.411,-0.264,178.284,-115.723,-311.523
-0.623,0.535,-0.258,181.152,-122.986,-305.359
-0.681,0.620,-0.293,182.007,-134.033,-298.706
-0.681,0.692,-0.374,183.228,-142.700,-291.382
-0.722,0.710,-0.451,180.969,-147.156,-283.325
-0.675,0.809,-0.521,173.462,-140.869,-260.681
-0.681,0.793,-0.566,187.439,-120.789,-237.305
-0.661,0.778,-0.601,212.463,-93.201,-219.604
-0.644,0.761,-0.609,234.070,-60.486,-200.806
-0.635,0.760,-0.572,241.577,-33.508,-187.561
-0.621,0.812,-0.515,232.483,-22.400,-181.763
-0.609,0.861,-0.474,212.891,-27.771,-180.786
-0.605,0.890,-0.484,185.547,-38.025,-183.899
-0.614,0.896,-0.534,160.828,-48.157,-185.242
-0.602,0.912,-0.557,148.499,-51.819,-183.167
-0.613,0.946,-0.567,145.325,-43.701,-177.368
-0.650,0.976,-0.553,147.400,-26.367,-166.748
-0.670,1.014,-0.506,152.588,-6.592,-153.809
-0.676,1.039,-0.454,156.677,11.536,-142.029
-0.670,1.050,-0.416,155.823,24.963,-135.376
-0.660,1.072,-0.375,150.330,30.334,-135.498
-0.656,1.103,-0.322,144.531,27.283,-140.686
-0.638,1.154,-0.288,137.512,19.775,-146.423
-0.653,1.188,-0.278,130.554,12.817,-147.156
-0.682,1.205,-0.292,126.587,9.338,-142.578
-0.714,1.244,-0.313,125.000,10.071,-133.362
-0.724,1.257,-0.303,126.099,12.817,-121.826
-0.734,1.294,-0.311,124.451,16.113,-109.680
-0.737,1.283,-0.307,121.033,18.860,-97.473
-0.742,1.278,-0.304,115.906,20.325,-84.717
-0.738,1.258,-0.297,108.704,18.738,-72.144
-0.724,1.232,-0.304,100.403,16.113,-62.317
-0.706,1.200,-0.316,93.018,15.076,-56.091
-0.694,1.180,-0.310,88.745,16.357,-52.979
-0.684,1.178,-0.295,87.158,18.433,-51.025
-0.686,1.180,-0.290,86.121,19.897,-50.171
-0.689,1.191,-0.288,83.496,20.325,-49.377
-0.700,1.211,-0.292,78.247,19.348,-48.706
-0.775,1.311,-0.323,68.481,17.029,-50.720
-0.857,1.466,-0.353,53.772,10.742,-53.467
-1.047,1.706,-0.404,35.889,2.014,-51.697
-1.287,1.955,-0.431,15.259,-13.306,-49.255
-1.272,1.979,-0.356,-2.502,-32.959,-40.771
-1.076,1.828,-0.261,-11.780,-33.203,-10.315
-0.831,1.535,-0.197,-6.653,-10.498,31.189
-0.704,1.194,-0.254,3.052,20.386,65.369
-0.628,0.932,-0.271,11.780,37.842,77.515
-0.553,0.770,-0.225,17.212,38.879,68.359
-0.533,0.664,-0.172,11.902,35.645,49.072
-0.499,0.608,-0.142,1.038,28.931,28.320
-0.466,0.587,-0.122,-10.986,21.179,9.766
-0.473,0.581,-0.057,-22.156,14.404,-3.967
-0.496,0.598,0.023,-25.696,12.024,-8.545
-0.518,0.606,0.088,-22.461,11.169,-4.761
-0.537,0.596,0.137,-14.160,10.986,0.061
-0.527,0.598,0.153,-2.808,11.047,4.944
-0.519,0.603,0.135,6.775,8.484,7.263
-0.510,0.640,0.071,10.864,3.723,5.310
-0.494,0.672,0.006,9.399,-2.441,-1.099
-0.492,0.708,-0.031,7.019,-8.484,-8.057
-0.493,0.758,-0.070,5.676,-11.292,-13.794
-0.506,0.819,-0.116,4.089,-10.437,-16.724
-0.533,0.881,-0.162,2.197,-8.057,-15.991
-0.561,0.936,-0.196,-0.488,-6.714,-13.977
-0.576,0.968,-0.212,-3.784,-5.554,-11.536
-0.585,0.983,-0.210,-7.141,-3.235,-7.629
-0.596,0.986,-0.193,-8.057,-0.427,-1.831
-0.603,0.960,-0.172,-7.202,1.953,5.737
-0.585,0.910,-0.148,-5.066,4.456,11.963
-0.569,0.856,-0.127,-2.075,6.592,15.442
-0.554,0.809,-0.109,1.526,7.446,16.724
-0.549,0.774,-0.096,4.395,6.409,15.259
-0.548,0.747,-0.086,5.615,5.554,12.268
-0.542,0.729,-0.073,5.676,5.188,8.911
-0.537,0.718,-0.059,5.371,4.456,5.615
-0.532,0.719,-0.053,4.700,4.028,1.770
-0.532,0.741,-0.052,3.662,3.052,-1.648
-0.551,0.763,-0.068,0.854,2.075,-4.639
-0.562,0.785,-0.085,-2.075,1.404,-6.653

-1.058,1.590,-0.435,-77.637,-42.480,40.222
-1.132,1.711,-0.522,-114.685,-46.082,70.862
-1.090,1.688,-0.558,-156.677,-45.044,100.159
-1.036,1.583,-0.578,-202.332,-37.903,128.662
-1.094,1.454,-0.581,-236.755,-29.724,151.245
-1.231,1.407,-0.650,-253.296,-26.123,159.485
-1.297,1.512,-0.716,-258.972,-25.391,157.959
-1.354,1.569,-0.777,-263.245,-23.621,171.021
-1.397,1.561,-0.805,-271.240,-17.456,191.223
-1.391,1.455,-0.831,-276.917,-6.165,210.754
-1.356,1.337,-0.846,-274.902,9.766,226.929
-1.329,1.233,-0.841,-266.602,26.184,241.638
-1.290,1.122,-0.817,-256.287,41.382,252.930
-1.284,1.002,-0.802,-246.948,54.504,259.033
-1.303,0.935,-0.802,-238.281,62.134,258.362
-1.280,0.919,-0.789,-232.727,63.965,255.676
-1.240,0.865,-0.798,-232.117,66.284,255.981
-1.220,0.844,-0.789,-233.826,71.411,258.728
-1.220,0.812,-0.777,-233.154,76.782,263.733
-1.180,0.760,-0.749,-229.675,81.787,268.127
-1.112,0.704,-0.721,-226.318,87.219,271.179
-1.055,0.655,-0.704,-224.243,94.299,273.621
-0.969,0.583,-0.682,-222.656,101.990,276.367
-0.885,0.496,-0.675,-219.849,112.427,278.320
-0.836,0.431,-0.652,-214.111,123.169,278.687
-0.791,0.378,-0.610,-207.581,130.981,278.748
-0.761,0.323,-0.588,-204.407,136.108,276.978
-0.721,0.278,-0.579,-203.918,136.963,273.010
-0.630,0.248,-0.581,-204.102,135.681,267.883
-0.519,0.226,-0.567,-206.421,139.160,263.184
-0.457,0.216,-0.562,-209.656,147.583,260.376
-0.393,0.160,-0.513,-209.106,155.762,259.216
-0.331,0.111,-0.461,-204.407,161.316,255.554
-0.262,0.081,-0.417,-200.073,163.147,249.695
-0.185,0.067,-0.421,-198.364,163.391,243.042
-0.121,0.054,-0.435,-199.707,164.734,235.474
-0.053,0.051,-0.399,-200.439,167.908,228.027
-0.032,0.067,-0.404,-201.050,173.157,221.130
-0.016,0.099,-0.430,-198.303,178.406,216.553
0.008,0.114,-0.437,-195.068,182.922,213.684
0.003,0.124,-0.421,-196.228,184.509,210.022
-0.031,0.141,-0.405,-201.111,181.213,207.458
-0.001,0.152,-0.410,-206.909,174.316,206.970
0.051,0.154,-0.410,-209.778,168.823,207.397
0.092,0.147,-0.411,-212.891,167.786,209.473
0.123,0.160,-0.401,-216.919,170.654,211.487
0.142,0.166,-0.369,-220.703,174.988,212.341
0.188,0.172,-0.325,-222.534,179.016,212.097
0.223,0.175,-0.263,-224.670,183.472,210.144
0.253,0.193,-0.187,-222.595,188.416,208.008
0.300,0.237,-0.133,-218.201,193.420,206.543
0.368,0.322,-0.073,-215.881,195.374,205.933
0.443,0.422,0.023,-215.759,192.505,206.116
0.545,0.504,0.154,-214.294,187.073,208.801
0.689,0.535,0.283,-208.801,179.626,215.759
0.862,0.513,0.438,-202.759,168.091,221.069
1.071,0.494,0.646,-203.003,148.437,217.590
1.262,0.528,0.834,-190.247,128.235,218.262
1.397,0.255,1.061,-168.640,114.624,217.163
1.638,0.152,1.281,-153.809,100.830,206.665
1.696,-0.094,1.498,-140.808,84.351,193.848
1.732,-0.154,1.613,-133.789,54.504,160.156
1.694,-0.126,1.522,-110.291,39.185,145.264
1.644,-0.089,1.418,-83.496,33.752,137.939
1.609,-0.049,1.405,-63.965,24.902,121.094
1.510,-0.042,1.467,-61.890,6.592,95.764
1.412,-0.042,1.498,-60.486,-13.550,73.425
1.294,-0.060,1.465,-47.180,-26.794,56.091
1.192,-0.086,1.414,-30.457,-31.982,43.274
1.052,-0.125,1.360,-16.968,-34.912,29.663
0.885,-0.161,1.311,-8.179,-37.354,15.442
0.722,-0.190,1.261,-2.380,-38.757,4.089
0.580,-0.196,1.206,1.343,-37.048,-3.845
0.469,-0.203,1.101,2.808,-31.494,-9.277
0.377,-0.163,1.025,8.484,-26.855,-10.376
0.302,-0.141,0.979,12.329,-23.132,-8.423
0.242,-0.165,0.965,12.573,-19.531,-5.859
0.220,-0.209,0.963,12.573,-18.066,-2.563
0.232,-0.247,0.945,12.024,-18.433,0.305
0.255,-0.292,0.939,12.390,-19.531,3.479
0.322,-0.339,0.934,13.733,-20.325,6.287
0.398,-0.373,0.935,13.977,-19.897,7.141
0.475,-0.393,0.935,13.184,-17.456,5.005
0.532,-0.413,0.957,13.550,-12.573,1.709
0.569,-0.412,0.978,14.343,-5.432,-1.831
0.575,-0.387,0.999,16.052,1.160,-5.981
0.561,-0.357,1.003,16.479,3.540,-11.108
0.533,-0.339,1.033,17.944,1.770,-15.564
0.505,-0.337,1.067,19.714,-2.075,-19.836
0.473,-0.332,1.087,22.095,-7.202,-23.315
0.451,-0.314,1.097,25.635,-13.306,-26.062
0.432,-0.286,1.091,28.809,-18.372,-29.114
0.424,-0.251,1.072,32.166,-21.179,-30.884
0.432,-0.232,1.048,35.950,-22.278,-32.654
0.441,-0.237,1.016,38.879,-21.484,-33.752
0.460,-0.263,0.998,42.297,-19.531,-35.522
0.476,-0.284,0.998,46.814,-17.700,-38.696
0.500,-0.299,1.000,52.063,-17.090,-42.419
0.530,-0.325,1.006,58.777,-17.761,-46.265
0.561,-0.362,1.030,67.322,-20.447,-52.002
0.593,-0.385,1.062,79.407,-24.475,-57.434
0.614,-0.408,1.083,93.567,-31.372,-64.270
0.629,-0.419,1.097,108.337,-40.161,-72.632
0.638,-0.465,1.092,122.375,-50.049,-84.106
0.655,-0.445,1.069,136.230,-60.425,-95.886
0.650,-0.430,1.042,149.292,-68.848,-106.873
0.626,-0.404,1.013,160.889,-75.012,-115.967
0.600,-0.372,0.964,168.701,-78.735,-122.559
0.567,-0.368,0.919,173.279,-80.078,-129.272
0.521,-0.342,0.879,174.255,-80.444,-134.460
0.471,-0.346,0.838,174.011,-78.674,-138.184
0.423,-0.365,0.808,174.805,-76.111,-143.250
0.381,-0.398,0.774,173.218,-72.693,-148.682
0.332,-0.443,0.735,170.654,-69.885,-155.212
0.268,-0.465,0.688,169.800,-69.885,-160.278
0.205,-0.470,0.652,171.936,-73.303,-163.330
0.158,-0.479,0.613,175.110,-76.721,-166.260
0.105,-0.500,0.576,178.589,-78.857,-168.579
0.065,-0.517,0.543,179.993,-79.285,-170.105

-0.738,1.653,-0.396,123.230,15.442,-173.889
-0.757,1.699,-0.454,116.760,15.930,-165.039
-0.750,1.730,-0.511,113.220,20.020,-153.748
-0.740,1.751,-0.553,109.924,26.733,-138.977
-0.757,1.767,-0.578,104.248,34.058,-120.605
-0.788,1.774,-0.579,95.093,39.734,-100.342
-0.833,1.802,-0.573,81.726,44.067,-78.308
-0.929,1.856,-0.530,68.054,44.617,-54.688
-1.146,2.048,-0.417,55.420,36.377,-33.325
-1.284,2.082,-0.265,40.466,18.066,-19.165
-1.171,1.958,-0.138,24.231,2.502,3.662
-1.004,1.682,-0.036,21.301,0.977,41.565
-0.800,1.346,-0.009,28.381,14.465,82.520
-0.691,1.005,-0.072,29.541,32.227,111.328
-0.589,0.749,-0.129,24.475,39.978,116.943
-0.495,0.573,-0.108,18.005,36.255,100.403
-0.457,0.470,-0.066,3.357,30.762,69.946
-0.454,0.427,0.016,-12.878,26.062,34.241
-0.462,0.466,0.121,-18.921,21.667,2.136
-0.507,0.561,0.219,-15.442,19.897,-21.362
-0.577,0.668,0.283,-6.714,19.043,-35.217
-0.627,0.792,0.320,3.845,15.686,-39.063
-0.666,0.901,0.310,11.963,7.385,-34.241
-0.665,0.934,0.262,14.160,-2.991,-24.719
-0.611,0.926,0.176,11.108,-11.475,-15.259
-0.545,0.901,0.080,6.165,-16.479,-8.362
-0.494,0.868,0.022,1.221,-17.578,-4.150
-0.457,0.840,-0.020,-2.563,-14.282,-1.892
-0.434,0.817,-0.044,-4.456,-8.240,-0.122
-0.425,0.799,-0.052,-4.883,-2.319,1.343
-0.426,0.795,-0.038,-3.906,2.869,3.296
-0.430,0.804,-0.028,-3.296,6.958,4.333
-0.443,0.816,-0.013,-2.563,9.155,4.639
-0.458,0.831,0.002,-1.831,8.972,4.395
-0.478,0.845,0.007,-1.770,6.775,4.517
-0.494,0.852,0.007,-1.526,4.333,5.005
-0.504,0.861,0.001,-0.793,2.686,5.859
-0.504,0.868,-0.004,0.671,1.892,6.958
-0.511,0.865,-0.026,1.099,1.648,8.118
-0.513,0.852,-0.047,1.343,1.709,8.362
-0.511,0.845,-0.056,2.075,1.953,8.240
-0.515,0.835,-0.047,3.235,3.723,7.874
-0.521,0.834,-0.026,5.005,6.470,7.507
-0.530,0.834,0.005,7.141,8.423,6.714
-0.537,0.833,0.032,7.874,9.338,5.798
-0.547,0.828,0.052,8.301,9.155,4.822
-0.543,0.824,0.072,8.972,8.606,3.784
-0.538,0.819,0.091,8.911,7.446,2.747
-0.534,0.821,0.094,8.118,4.700,1.831
-0.526,0.821,0.078,6.348,1.160,1.038
-0.517,0.818,0.057,3.723,-1.892,-0.549
-0.512,0.817,0.035,1.709,-2.930,-1.770
-0.508,0.821,0.029,0.610,-1.831,-1.831
-0.500,0.822,0.024,-1.648,0.305,-0.854
-0.503,0.818,0.025,-4.272,1.465,0.183
-0.500,0.818,0.028,-6.287,0.183,0.671
-0.500,0.820,0.025,-7.935,-1.465,-0.427
-0.499,0.834,0.010,-7.812,-2.441,-1.587
-0.501,0.847,-0.004,-6.287,-2.808,-2.502
-0.510,0.855,-0.008,-4.211,-2.747,-2.869
-0.515,0.857,-0.014,-1.770,-1.892,-2.319
-0.511,0.852,-0.016,0.671,-1.343,0.000
-0.505,0.845,-0.019,2.380,-1.099,1.343
-0.499,0.843,-0.026,3.357,-0.488,1.343
-0.497,0.845,-0.030,4.517,0.244,1.038
-0.494,0.853,-0.030,5.310,1.526,0.977
-0.501,0.863,-0.029,4.456,3.723,1.221
-0.511,0.860,-0.024,3.357,4.822,2.563
-0.511,0.844,-0.005,1.770,4.028,2.991
-0.513,0.833,0.009,0.244,3.052,1.892
-0.522,0.832,0.020,0.549,2.808,1.160
-0.522,0.841,0.024,1.831,3.296,0.793
-0.523,0.845,0.017,2.380,3.479,0.793
-0.521,0.839,0.011,1.770,3.235,1.404
-0.511,0.832,0.011,1.282,2.869,1.831
-0.506,0.831,0.013,1.038,2.808,1.343
-0.507,0.840,0.019,1.465,2.380,0.916
-0.512,0.850,0.025,1.221,0.916,0.671
-0.512,0.848,0.016,-0.305,-0.854,0.854
-0.511,0.846,0.010,-1.465,-1.709,0.427
-0.504,0.845,0.007,-1.221,-1.770,0.671
-0.506,0.843,-0.004,-0.793,-0.854,1.099
-0.507,0.840,-0.015,-0.671,1.221,1.953
-0.508,0.834,-0.012,0.061,3.174,2.625
-0.508,0.828,-0.008,1.099,4.456,3.479
-0.511,0.820,0.000,2.136,5.615,4.211
-0.513,0.819,0.009,3.601,7.141,4.456
-0.517,0.819,0.021,4.822,8.118,4.944
-0.528,0.815,0.033,4.822,7.996,5.127
-0.536,0.809,0.044,4.089,6.897,4.517
-0.536,0.802,0.059,3.357,5.371,4.028
-0.537,0.804,0.067,2.991,3.845,3.601
-0.542,0.809,0.061,2.808,2.930,2.747
-0.537,0.813,0.051,2.014,1.404,1.465
-0.531,0.820,0.041,0.488,-0.488,0.061
-0.531,0.824,0.034,-0.916,-1.831,-1.282
-0.526,0.829,0.024,-1.648,-2.319,-1.770
-0.521,0.836,0.017,-1.160,-2.380,-1.770
-0.518,0.845,0.008,-0.488,-1.831,-1.648
-0.517,0.847,-0.003,-0.549,-1.160,-0.305
-0.516,0.842,-0.008,-0.671,-0.427,1.038
-0.513,0.839,-0.002,-0.366,0.793,1.526
-0.520,0.834,0.008,0.427,2.441,1.770
-0.523,0.830,0.014,1.709,3.296,1.953
-0.521,0.827,0.023,1.953,2.930,1.953
-0.523,0.823,0.027,1.404,2.441,1.892
-0.524,0.825,0.027,1.831,2.075,1.648
-0.526,0.831,0.027,2.014,1.160,1.587
-0.528,0.831,0.024,0.977,-0.305,1.221
-0.525,0.833,0.017,-0.549,-1.343,0.427
-0.526,0.830,0.008,-2.014,-1.709,0.366
-0.522,0.829,0.004,-2.258,-1.587,0.488
-0.519,0.827,0.004,-1.831,-0.916,0.427
-0.518,0.825,0.001,-1.526,-0.366,0.671
-0.521,0.828,0.000,-1.282,0.305,0.366
-0.526,0.833,0.002,0.061,0.427,0.366
-0.530,0.829,0.008,0.793,0.244,0.610
-0.530,0.830,0.014,0.793,0.732,0.854
-0.528,0.844,0.019,1.282,0.977,1.709

-0.930,1.387,-0.342,-161.804,-47.241,100.037
-0.965,1.387,-0.416,-185.608,-50.354,111.572
-1.003,1.354,-0.490,-206.482,-49.866,124.023
-1.019,1.306,-0.546,-217.224,-45.227,134.827
-1.024,1.282,-0.583,-220.154,-37.781,144.287
-1.043,1.243,-0.625,-218.262,-28.442,154.236
-1.068,1.206,-0.673,-215.088,-18.921,164.490
-1.080,1.168,-0.714,-212.891,-9.644,172.180
-1.104,1.175,-0.726,-214.050,-0.183,177.490
-1.151,1.163,-0.740,-216.858,8.484,186.829
-1.170,1.118,-0.758,-221.802,17.395,196.533
-1.165,1.070,-0.743,-224.854,24.841,203.796
-1.188,1.060,-0.726,-225.342,28.259,211.914
-1.192,1.014,-0.750,-227.356,28.809,218.628
-1.198,0.997,-0.818,-234.863,31.372,220.520
-1.194,0.982,-0.848,-241.638,35.095,224.121
-1.184,0.962,-0.876,-245.972,40.771,230.408
-1.150,0.924,-0.888,-249.268,48.889,239.685
-1.081,0.853,-0.911,-248.840,60.181,249.023
-0.996,0.769,-0.904,-248.413,72.632,255.737
-0.945,0.689,-0.905,-248.779,84.534,259.583
-0.923,0.633,-0.919,-246.643,95.093,261.292
-0.923,0.641,-0.956,-245.178,101.135,263.000
-0.889,0.652,-1.008,-245.667,104.797,265.442
-0.808,0.661,-1.087,-249.268,112.732,266.907
-0.714,0.660,-1.167,-258.728,126.953,268.921
-0.613,0.610,-1.171,-270.813,148.010,272.095
-0.514,0.546,-1.127,-280.151,173.584,273.987
-0.465,0.519,-1.044,-285.706,200.500,273.376
-0.412,0.514,-0.933,-287.415,224.548,272.095
-0.346,0.511,-0.817,-287.354,245.605,270.752
-0.274,0.499,-0.667,-284.546,262.451,270.203
-0.182,0.460,-0.534,-282.715,274.597,267.334
-0.085,0.435,-0.435,-284.790,283.691,261.841
-0.017,0.410,-0.320,-284.668,291.382,256.287
0.081,0.396,-0.199,-281.128,297.119,251.648
0.172,0.402,-0.095,-274.292,301.453,246.887
0.262,0.372,0.018,-264.465,306.580,244.446
0.337,0.341,0.126,-253.479,310.669,242.371
0.388,0.316,0.208,-244.629,312.378,241.516
0.410,0.297,0.298,-233.398,308.655,242.065
0.428,0.249,0.402,-219.238,298.767,242.920
0.437,0.186,0.490,-205.750,283.447,242.065
0.439,0.145,0.524,-192.993,264.404,238.403
0.443,0.147,0.516,-182.434,242.737,233.398
0.450,0.187,0.493,-174.561,220.276,228.577
0.443,0.222,0.464,-169.128,197.876,224.548
0.469,0.265,0.427,-162.292,179.871,223.022
0.515,0.301,0.377,-157.715,165.833,223.267
0.588,0.320,0.332,-155.945,155.823,224.304
0.652,0.320,0.330,-152.588,147.156,223.206
0.742,0.285,0.365,-144.287,142.273,223.755
0.828,0.218,0.439,-134.155,139.038,222.229
0.942,0.127,0.511,-121.765,137.329,217.407
1.020,0.087,0.578,-111.023,133.301,210.876
1.104,0.047,0.581,-104.858,127.319,203.796
1.179,0.028,0.607,-105.103,115.295,191.772
1.278,0.090,0.635,-111.145,95.398,176.697
1.313,0.083,0.655,-116.943,78.918,167.480
1.448,0.037,0.777,-124.084,59.448,154.541
1.476,-0.004,0.933,-124.451,29.236,135.437
1.539,0.036,0.821,-97.412,11.902,127.563
1.556,0.005,0.687,-70.068,15.686,131.165
1.608,-0.029,0.649,-50.110,22.217,121.765
1.577,-0.084,0.807,-49.011,20.142,96.008
1.482,-0.124,1.009,-53.955,12.817,66.040
1.400,-0.114,1.136,-49.438,11.475,47.302
1.329,-0.072,1.229,-35.706,12.817,35.950
1.230,-0.053,1.317,-26.184,8.057,22.156
1.112,-0.061,1.421,-17.944,-3.906,5.615
0.997,-0.076,1.488,-7.202,-16.296,-8.057
0.887,-0.069,1.502,5.127,-28.748,-17.517
0.796,-0.057,1.444,16.541,-39.673,-24.963
0.699,-0.061,1.328,22.278,-46.265,-32.043
0.593,-0.052,1.252,24.170,-52.307,-36.987
0.484,-0.062,1.151,23.926,-55.481,-37.598
0.390,-0.093,1.020,23.560,-54.382,-34.973
0.312,-0.134,0.908,25.940,-51.636,-29.724
0.251,-0.198,0.815,28.748,-47.058,-25.513
0.220,-0.265,0.735,31.067,-41.321,-23.010
0.205,-0.301,0.681,31.311,-36.255,-20.447
0.195,-0.307,0.635,29.114,-31.067,-16.663
0.177,-0.307,0.615,25.818,-24.902,-12.268
0.181,-0.301,0.609,20.996,-18.677,-8.057
0.205,-0.303,0.649,15.137,-12.939,-4.578
0.220,-0.339,0.709,9.338,-7.019,-2.441
0.242,-0.357,0.775,6.775,-1.038,-0.793
0.267,-0.346,0.833,6.592,3.296,-0.305
0.303,-0.307,0.885,7.385,5.859,-1.038
0.327,-0.277,0.929,8.362,7.202,-0.793
0.358,-0.251,0.962,9.277,7.446,0.183
0.390,-0.221,0.981,9.094,5.188,1.526
0.413,-0.219,0.984,7.690,0.854,3.052
0.445,-0.235,0.962,6.287,-3.113,4.150
0.483,-0.262,0.942,6.714,-5.249,3.845
0.512,-0.291,0.927,7.690,-5.066,1.892
0.513,-0.317,0.929,9.827,-3.906,-1.648
0.507,-0.316,0.938,13.550,-2.319,-5.554
0.500,-0.299,0.944,17.578,-1.221,-9.216
0.471,-0.287,0.955,21.179,-0.977,-13.062
0.453,-0.251,0.940,24.292,-1.892,-15.869
0.433,-0.216,0.915,24.719,-3.784,-17.334
0.424,-0.211,0.894,23.987,-6.165,-16.968
0.445,-0.240,0.877,23.987,-7.935,-16.052
0.479,-0.286,0.867,25.818,-9.399,-16.602
0.514,-0.324,0.878,29.602,-10.437,-19.409
0.547,-0.349,0.884,34.851,-9.521,-23.743
0.581,-0.360,0.897,42.297,-8.728,-28.748
0.617,-0.369,0.898,50.659,-8.972,-35.339
0.666,-0.360,0.918,60.425,-11.414,-43.823
0.715,-0.362,0.940,72.632,-14.160,-53.162
0.775,-0.389,0.983,86.243,-17.029,-61.340
0.864,-0.392,1.024,99.426,-20.630,-70.984
0.938,-0.386,1.057,106.750,-22.888,-81.177
0.996,-0.397,1.098,113.403,-23.804,-93.506
1.038,-0.417,1.122,118.652,-24.963,-107.544
1.057,-0.444,1.117,123.352,-26.855,-124.390
1.062,-0.480,1.102,129.028,-29.785,-143.188
1.058,-0.521,1.081,135.925,-32.227,-163.330

0.982,-0.579,1.031,150.024,-34.546,-200.073
0.928,-0.600,1.002,160.034,-37.415,-216.858
0.893,-0.567,0.970,168.396,-42.114,-232.544
0.866,-0.523,0.940,175.293,-49.988,-243.896
0.770,-0.429,0.928,181.030,-61.707,-249.329
0.652,-0.368,0.915,185.974,-75.806,-248.108
0.569,-0.347,0.875,188.782,-87.585,-251.038
0.505,-0.328,0.826,190.552,-99.182,-257.263
0.483,-0.367,0.785,194.031,-109.375,-264.038
0.398,-0.357,0.755,199.097,-115.112,-269.836
0.368,-0.398,0.682,206.055,-117.310,-277.283
0.333,-0.431,0.612,210.693,-118.347,-287.842
0.313,-0.452,0.546,212.341,-118.774,-299.377
0.277,-0.399,0.470,210.022,-120.605,-311.279
0.249,-0.344,0.422,203.796,-123.840,-321.106
0.207,-0.238,0.376,187.561,-128.174,-327.881
0.104,-0.140,0.292,161.194,-132.507,-330.383
0.016,-0.085,0.220,140.381,-140.686,-329.224
-0.066,-0.036,0.174,130.554,-152.222,-325.256
-0.129,0.013,0.130,127.197,-165.588,-315.918
-0.187,0.041,0.069,127.869,-179.749,-302.917
-0.223,0.022,0.001,130.737,-192.627,-289.917
-0.245,-0.016,-0.065,133.362,-201.111,-279.907
-0.256,-0.052,-0.120,135.376,-203.430,-272.461
-0.260,-0.071,-0.159,138.245,-198.120,-266.357
-0.269,-0.073,-0.180,142.639,-184.692,-261.536
-0.285,-0.059,-0.198,145.630,-165.466,-256.714
-0.311,-0.040,-0.195,148.560,-144.226,-251.404
-0.346,-0.017,-0.168,152.710,-125.427,-245.728
-0.375,0.011,-0.144,156.250,-110.779,-240.234
-0.392,0.046,-0.125,157.288,-101.440,-236.633
-0.404,0.087,-0.114,155.029,-98.572,-236.755
-0.407,0.116,-0.123,148.376,-102.661,-239.868
-0.397,0.136,-0.159,138.489,-111.694,-245.178
-0.372,0.156,-0.199,129.272,-121.521,-250.916
-0.358,0.194,-0.237,123.047,-128.113,-255.310
-0.342,0.232,-0.283,120.178,-129.700,-258.850
-0.329,0.265,-0.315,121.582,-125.732,-262.024
-0.341,0.349,-0.340,123.962,-117.188,-264.404
-0.350,0.426,-0.313,132.446,-105.530,-265.930
-0.348,0.523,-0.266,148.315,-91.614,-265.137
-0.368,0.573,-0.230,167.603,-78.491,-264.282
-0.378,0.685,-0.113,165.100,-72.632,-262.756
-0.374,0.868,-0.032,159.241,-78.796,-255.371
-0.405,0.944,-0.065,183.044,-90.515,-255.737
-0.401,0.972,-0.193,207.703,-99.731,-262.695
-0.372,1.030,-0.262,210.937,-105.103,-264.832
-0.366,1.121,-0.281,208.862,-103.149,-259.399
-0.350,1.184,-0.290,207.642,-91.675,-250.183
-0.355,1.226,-0.296,208.435,-72.449,-237.427
-0.341,1.258,-0.286,208.130,-51.697,-221.436
-0.315,1.285,-0.270,205.688,-35.583,-205.566
-0.292,1.297,-0.275,196.838,-27.954,-194.946
-0.271,1.304,-0.288,180.725,-26.733,-189.392
-0.269,1.312,-0.283,165.588,-26.733,-186.462
-0.277,1.329,-0.276,158.447,-24.048,-183.350
-0.292,1.361,-0.243,158.936,-17.944,-179.077
-0.314,1.402,-0.188,163.879,-9.583,-174.500
-0.339,1.444,-0.137,168.884,-1.465,-169.312
-0.371,1.494,-0.075,171.387,4.883,-164.551
-0.389,1.553,-0.029,169.189,8.179,-160.156
-0.395,1.615,-0.002,160.767,7.202,-155.884
-0.421,1.666,-0.016,145.569,2.747,-150.757
-0.444,1.720,-0.049,128.601,-2.502,-144.043
-0.467,1.739,-0.105,114.380,-6.653,-135.315
-0.479,1.764,-0.160,100.952,-9.583,-123.535
-0.489,1.773,-0.205,90.088,-9.277,-109.741
-0.490,1.776,-0.241,81.970,-5.798,-94.482
-0.508,1.800,-0.251,75.317,-0.427,-79.895
-0.585,1.929,-0.272,67.749,4.761,-67.322
-0.934,2.265,-0.340,55.786,2.869,-60.791
-1.131,2.621,-0.354,38.513,-17.517,-55.420
-1.026,2.720,-0.300,10.986,-42.725,-35.400
-0.822,2.484,-0.193,-7.690,-47.058,3.113
-0.584,2.044,-0.158,-12.268,-25.391,55.969
-0.481,1.523,-0.214,-8.606,7.568,100.464
-0.417,1.138,-0.230,-0.061,32.715,117.126
-0.410,0.803,-0.182,4.150,45.227,105.713
-0.452,0.665,-0.143,-2.686,49.866,82.336
-0.432,0.529,-0.050,-6.653,42.480,50.781
-0.398,0.502,0.054,-8.545,30.151,21.667
-0.351,0.547,0.127,-9.094,18.738,-1.770
-0.365,0.635,0.171,-9.949,12.024,-21.057
-0.395,0.733,0.197,-9.644,6.714,-37.659
-0.408,0.845,0.201,-8.057,0.610,-46.875
-0.437,0.938,0.178,-5.981,-5.066,-47.913
-0.440,1.001,0.135,-2.563,-9.277,-42.053
-0.425,1.038,0.079,1.099,-11.780,-30.457
-0.394,1.037,0.042,4.822,-12.207,-16.479
-0.355,1.002,0.010,9.033,-10.986,-4.089
-0.316,0.952,-0.016,9.949,-9.216,5.493
-0.289,0.892,-0.024,8.972,-6.714,11.902
-0.268,0.837,-0.024,7.019,-4.211,15.320
-0.248,0.795,-0.015,4.333,-2.625,16.052
-0.237,0.764,-0.001,1.343,-1.526,14.709
-0.236,0.748,0.027,-0.793,-0.854,11.169
-0.241,0.744,0.050,-0.977,-0.793,6.348
-0.256,0.764,0.052,0.122,-1.953,1.526
-0.273,0.799,0.034,0.854,-3.784,-1.953
-0.282,0.826,0.010,0.061,-5.737,-3.845
-0.281,0.844,-0.008,-0.793,-7.019,-4.883
-0.277,0.856,-0.029,-0.977,-6.775,-4.578
-0.276,0.873,-0.052,-0.366,-5.554,-4.028
-0.278,0.890,-0.076,0.000,-3.784,-3.479
-0.280,0.906,-0.092,0.732,-1.831,-3.113
-0.290,0.924,-0.088,2.136,0.305,-3.357
-0.303,0.940,-0.084,4.211,2.197,-3.601
-0.321,0.965,-0.071,6.042,3.723,-3.357
-0.344,0.990,-0.052,6.592,5.005,-3.113
-0.364,1.013,-0.031,6.104,5.371,-2.625
-0.380,1.031,-0.011,5.737,4.517,-1.892
-0.393,1.039,0.000,5.005,3.235,-0.671
-0.400,1.034,0.001,3.906,2.197,1.343
-0.399,1.013,0.002,2.808,1.892,3.845
-0.391,0.986,0.011,2.563,2.319,5.981
-0.381,0.959,0.018,2.747,2.686,7.080
-0.377,0.942,0.021,1.892,2.563,7.080
-0.380,0.919,0.026,0.183,1.526,5.554
-0.372,0.902,0.036,-1.709,-0.183,3.296

-0.786,1.792,-0.277,-114.075,-90.332,23.254
-0.841,1.888,-0.355,-127.625,-95.215,42.358
-0.824,1.933,-0.408,-140.320,-95.764,65.796
-0.771,1.928,-0.450,-155.090,-89.783,89.294
-0.744,1.880,-0.473,-169.861,-79.590,110.596
-0.743,1.814,-0.508,-187.500,-70.557,127.502
-0.728,1.769,-0.543,-206.177,-63.293,137.451
-0.725,1.775,-0.574,-225.891,-57.678,148.132
-0.739,1.776,-0.588,-250.732,-53.528,163.879
-0.754,1.759,-0.621,-282.715,-48.767,183.228
-0.753,1.729,-0.620,-314.026,-41.687,203.125
-0.792,1.660,-0.637,-339.783,-33.386,222.168
-0.770,1.632,-0.662,-358.032,-22.278,235.718
-0.736,1.589,-0.649,-367.676,-4.761,252.319
-0.725,1.528,-0.652,-371.094,14.832,271.912
-0.696,1.430,-0.686,-368.835,35.767,287.354
-0.684,1.370,-0.702,-365.173,58.594,298.767
-0.676,1.260,-0.700,-363.403,76.965,308.228
-0.651,1.171,-0.731,-364.075,91.797,314.148
-0.637,1.093,-0.715,-368.958,104.614,318.970
-0.638,0.996,-0.736,-372.314,115.112,321.838
-0.613,0.926,-0.803,-368.530,128.540,322.144
-0.633,0.855,-0.792,-357.666,144.653,324.890
-0.637,0.752,-0.745,-338.379,158.936,329.407
-0.626,0.601,-0.727,-316.223,172.791,331.543
-0.593,0.478,-0.665,-299.072,181.763,327.393
-0.604,0.401,-0.635,-284.729,182.861,319.275
-0.615,0.337,-0.650,-272.095,179.321,310.242
-0.549,0.300,-0.687,-262.573,175.781,299.805
-0.467,0.291,-0.704,-257.385,178.345,292.358
-0.381,0.284,-0.713,-255.676,186.768,288.818
-0.278,0.243,-0.706,-258.057,197.693,286.255
-0.208,0.163,-0.650,-260.559,208.130,281.677
-0.143,0.081,-0.558,-261.536,213.135,274.231
-0.089,0.021,-0.502,-259.338,213.257,263.977
-0.033,0.003,-0.466,-253.967,210.205,255.066
0.040,-0.028,-0.457,-249.817,208.191,248.596
0.123,-0.024,-0.466,-249.084,208.984,240.601
0.170,-0.059,-0.426,-253.784,213.501,231.262
0.241,-0.034,-0.376,-257.263,215.515,216.492
0.291,0.022,-0.373,-254.395,221.863,207.336
0.333,0.065,-0.362,-254.089,232.666,204.041
0.363,0.100,-0.311,-251.160,240.662,204.834
0.381,0.145,-0.248,-246.521,243.530,205.872
0.388,0.171,-0.181,-245.850,242.187,205.078
0.392,0.165,-0.096,-244.812,235.535,204.041
0.421,0.174,-0.005,-240.906,225.281,202.271
0.458,0.170,0.041,-242.126,215.698,201.355
0.522,0.153,0.106,-245.544,207.397,199.463
0.612,0.132,0.192,-247.620,199.402,194.580
0.709,0.083,0.271,-247.437,194.946,191.223
0.863,0.059,0.385,-242.920,190.918,188.721
1.048,0.113,0.502,-233.582,179.443,181.274
1.214,0.154,0.587,-222.229,168.396,176.147
1.415,0.206,0.680,-203.796,160.645,175.049
1.606,0.208,0.732,-172.302,157.654,177.795
1.759,0.090,0.891,-146.790,150.208,169.556
1.916,0.011,1.131,-132.874,126.343,142.517
1.946,-0.136,1.315,-114.746,102.417,118.164
1.938,-0.282,1.455,-97.839,84.778,97.534
1.916,-0.358,1.514,-78.064,70.862,78.308
1.815,-0.404,1.464,-56.519,60.059,58.411
1.686,-0.401,1.358,-42.664,47.852,39.368
1.481,-0.367,1.275,-37.598,31.250,19.531
1.267,-0.311,1.217,-30.518,11.658,0.366
1.029,-0.236,1.119,-28.748,-3.479,-15.259
0.823,-0.170,1.019,-23.437,-17.456,-25.879
0.600,-0.134,0.911,-12.390,-29.419,-30.701
0.411,-0.117,0.797,-6.653,-36.499,-30.151
0.242,-0.121,0.702,-6.836,-40.283,-27.039
0.091,-0.171,0.639,-8.667,-40.833,-21.484
0.012,-0.224,0.607,-7.385,-38.208,-13.550
0.018,-0.288,0.593,-0.488,-32.410,-5.676
0.055,-0.350,0.581,6.104,-24.414,0.549
0.125,-0.405,0.614,10.437,-17.456,4.089
0.224,-0.430,0.683,12.695,-13.367,4.700
0.303,-0.465,0.749,12.695,-8.911,5.798
0.381,-0.481,0.809,13.611,-6.592,7.935
0.448,-0.489,0.870,15.991,-7.202,9.888
0.497,-0.496,0.912,17.273,-9.949,11.963
0.532,-0.520,0.937,17.761,-14.587,13.184
0.568,-0.545,0.938,16.663,-18.921,13.123
0.578,-0.558,0.920,15.198,-21.851,10.742
0.582,-0.552,0.906,14.771,-22.522,7.751
0.565,-0.546,0.887,13.916,-20.020,4.089
0.526,-0.529,0.875,12.878,-15.625,0.305
0.485,-0.496,0.869,13.062,-10.986,-3.113
0.419,-0.459,0.870,12.695,-5.737,-5.615
0.361,-0.423,0.886,11.719,-1.648,-7.324
0.309,-0.407,0.905,10.803,1.221,-8.301
0.261,-0.401,0.915,11.414,2.930,-8.545
0.240,-0.393,0.915,14.160,1.709,-7.751
0.242,-0.406,0.920,16.907,-0.793,-6.287
0.262,-0.410,0.909,18.005,-3.418,-5.066
0.284,-0.422,0.891,17.822,-5.493,-4.578
0.306,-0.436,0.862,17.334,-6.592,-5.005
0.329,-0.451,0.840,18.250,-6.409,-5.676
0.351,-0.460,0.821,20.813,-5.310,-6.531
0.355,-0.456,0.794,21.912,-4.272,-6.958
0.362,-0.452,0.762,20.996,-3.967,-7.568
0.369,-0.449,0.724,19.775,-3.967,-8.240
0.364,-0.456,0.703,18.311,-3.784,-8.789
0.373,-0.462,0.696,17.944,-2.808,-8.972
0.373,-0.471,0.701,17.944,-1.038,-9.583
0.382,-0.488,0.718,18.311,0.977,-10.071
0.388,-0.501,0.743,19.165,3.296,-10.315
0.399,-0.523,0.771,21.118,4.822,-10.742
0.414,-0.524,0.802,24.231,4.822,-11.963
0.444,-0.536,0.830,28.442,3.479,-13.794
0.479,-0.547,0.856,33.752,0.671,-16.357
0.515,-0.548,0.878,39.490,-2.808,-18.982
0.549,-0.562,0.883,45.288,-6.348,-22.034
0.589,-0.581,0.882,51.331,-9.827,-25.574
0.617,-0.607,0.883,59.570,-13.000,-31.555
0.644,-0.626,0.889,69.641,-15.930,-38.635
0.647,-0.651,0.893,82.153,-18.250,-45.898
0.652,-0.676,0.885,97.107,-21.118,-53.955
0.668,-0.700,0.890,113.342,-26.672,-64.087
0.679,-0.699,0.872,126.282,-32.471,-76.233

-0.559,1.970,-0.290,154.358,-15.747,-128.906
-0.592,2.016,-0.334,139.160,-12.024,-115.662
-0.607,2.029,-0.387,121.948,-9.216,-102.295
-0.622,2.041,-0.461,105.530,-6.836,-88.684
-0.656,2.086,-0.513,89.661,-4.272,-74.158
-0.685,2.133,-0.570,74.524,-0.366,-57.007
-0.779,2.218,-0.583,59.326,5.188,-35.400
-0.894,2.314,-0.559,46.509,4.822,-15.564
-0.864,2.248,-0.470,27.466,-0.488,2.869
-0.717,1.952,-0.300,8.667,0.854,27.161
-0.546,1.571,-0.199,-1.526,16.479,55.359
-0.485,1.250,-0.230,-5.615,35.828,74.280
-0.425,1.048,-0.206,-3.845,39.673,72.266
-0.398,0.936,-0.166,-12.268,30.945,52.429
-0.429,0.879,-0.097,-28.503,18.005,27.344
-0.432,0.840,-0.032,-37.476,7.690,10.010
-0.442,0.807,0.024,-33.508,2.625,3.784
-0.440,0.780,0.037,-23.437,1.953,7.812
-0.411,0.755,0.028,-13.733,1.831,15.259
-0.378,0.742,0.016,-7.935,0.122,19.775
-0.338,0.733,-0.005,-6.897,-2.686,20.203
-0.309,0.724,-0.026,-8.606,-6.714,16.663
-0.284,0.719,-0.044,-10.803,-10.315,10.986
-0.265,0.725,-0.064,-11.780,-11.658,6.287
-0.262,0.734,-0.082,-10.742,-10.437,3.601
-0.261,0.751,-0.094,-8.484,-7.690,2.136
-0.264,0.767,-0.097,-5.371,-4.883,1.770
-0.272,0.784,-0.110,-2.625,-2.747,2.686
-0.279,0.789,-0.127,-1.709,-1.892,3.418
-0.279,0.790,-0.142,-1.953,-1.038,3.906
-0.264,0.791,-0.146,-2.563,-0.549,4.211
-0.251,0.800,-0.141,-2.441,-0.488,4.028
-0.253,0.801,-0.152,-2.075,-1.465,4.944
-0.254,0.803,-0.174,-2.441,-1.831,4.517
-0.257,0.809,-0.175,-1.709,-0.366,3.845
-0.268,0.816,-0.170,1.465,2.686,3.113
-0.285,0.835,-0.170,4.883,5.432,1.892
-0.308,0.852,-0.171,8.118,6.653,-0.488
-0.320,0.876,-0.175,9.460,7.080,-2.197
-0.336,0.895,-0.171,8.728,6.531,-4.028
-0.347,0.912,-0.170,7.690,5.737,-5.371
-0.356,0.931,-0.171,7.263,5.127,-5.554
-0.369,0.949,-0.183,7.507,5.859,-5.188
-0.375,0.963,-0.189,7.996,7.812,-4.150
-0.381,0.973,-0.182,8.301,9.033,-3.235
-0.391,0.980,-0.170,7.935,10.071,-2.991
-0.398,0.987,-0.150,7.263,10.742,-3.113
-0.404,0.998,-0.128,6.470,10.315,-2.991
-0.417,0.999,-0.116,5.981,8.972,-3.601
-0.421,0.999,-0.117,5.859,7.385,-3.662
-0.422,0.996,-0.120,5.432,5.615,-2.869
-0.415,0.990,-0.120,4.395,4.700,-1.892
-0.408,0.980,-0.117,3.784,4.761,-0.061
-0.398,0.963,-0.114,3.235,4.761,2.197
-0.390,0.946,-0.110,2.441,4.822,4.150
-0.381,0.927,-0.102,2.075,4.456,6.226
-0.368,0.909,-0.099,1.465,3.540,7.141
-0.354,0.891,-0.104,0.977,2.380,6.897
-0.342,0.879,-0.113,0.916,1.038,6.042
-0.340,0.872,-0.123,1.282,-0.061,5.188
-0.335,0.871,-0.131,1.953,-0.671,4.211
-0.326,0.868,-0.136,1.587,-1.160,3.052
-0.317,0.868,-0.141,0.916,-1.465,1.831
-0.317,0.871,-0.151,0.793,-0.916,1.221
-0.319,0.871,-0.160,1.465,0.061,1.038
-0.323,0.879,-0.159,2.441,1.404,0.977
-0.327,0.885,-0.156,3.296,2.563,0.793
-0.332,0.894,-0.154,3.662,3.235,0.366
-0.341,0.903,-0.150,3.723,3.418,-0.061
-0.346,0.908,-0.150,3.906,3.296,-0.549
-0.352,0.915,-0.150,3.906,3.906,-0.854
-0.359,0.924,-0.144,4.333,5.066,-0.305
-0.360,0.931,-0.137,4.639,5.981,0.671
-0.366,0.934,-0.132,3.784,6.226,1.343
-0.372,0.933,-0.126,2.502,5.981,1.526
-0.375,0.931,-0.118,1.587,5.615,1.892
-0.379,0.924,-0.105,1.343,5.493,2.380
-0.381,0.920,-0.101,1.587,5.127,2.502
-0.384,0.921,-0.103,2.014,4.089,2.563
-0.388,0.919,-0.110,1.465,2.869,2.441
-0.383,0.918,-0.118,0.244,1.648,2.441
-0.383,0.912,-0.119,-1.038,0.916,2.136
-0.384,0.911,-0.115,-1.343,1.282,2.625
-0.385,0.905,-0.115,-0.732,2.258,2.991
-0.378,0.902,-0.112,-0.305,2.502,3.357
-0.377,0.900,-0.107,-0.488,2.380,3.296
-0.378,0.902,-0.109,-0.977,2.075,3.540
-0.381,0.899,-0.106,-1.709,0.671,2.747
-0.382,0.904,-0.107,-3.052,-1.160,2.075
-0.391,0.910,-0.111,-4.028,-2.197,1.404
-0.395,0.927,-0.111,-4.456,-2.991,0.977
-0.410,0.946,-0.114,-5.310,-4.150,1.160
-0.417,0.958,-0.123,-8.240,-6.287,1.587
-0.419,0.974,-0.131,-11.780,-8.667,1.404
-0.422,1.009,-0.139,-15.015,-10.681,1.404
-0.444,1.061,-0.151,-18.677,-13.184,2.197
-0.472,1.127,-0.164,-23.437,-16.357,2.869
-0.508,1.204,-0.208,-31.433,-20.264,3.784
-0.571,1.310,-0.250,-42.358,-26.733,6.104
-0.665,1.408,-0.315,-59.631,-34.424,9.277
-0.746,1.554,-0.397,-81.665,-39.124,17.273
-0.797,1.698,-0.461,-104.858,-41.565,33.752
-0.827,1.821,-0.506,-132.141,-41.931,61.951
-0.860,1.767,-0.570,-162.231,-40.649,92.224
-0.820,1.721,-0.632,-190.063,-36.926,109.253
-0.761,1.677,-0.638,-207.947,-32.776,127.136
-0.751,1.621,-0.645,-220.703,-27.283,144.165
-0.746,1.600,-0.674,-230.896,-20.020,159.973
-0.795,1.567,-0.721,-240.723,-12.878,177.673
-0.855,1.522,-0.777,-254.272,-2.319,193.176
-0.896,1.470,-0.818,-265.564,11.841,201.965
-0.912,1.442,-0.844,-268.127,26.062,215.393
-0.923,1.455,-0.838,-267.944,38.086,233.459
-0.910,1.413,-0.833,-270.813,48.584,253.052
-0.879,1.315,-0.803,-275.513,59.875,265.747
-0.895,1.240,-0.778,-284.302,67.627,272.156
-0.937,1.157,-0.792,-292.297,70.190,275.085
-0.948,1.145,-0.824,-294.983,72.266,274.597
-0.990,1.104,-0.878,-293.945,78.186,277.954

-0.938,1.026,-0.934,-283.020,103.333,286.072
-0.936,0.973,-0.962,-277.527,117.126,293.213
-0.900,0.902,-1.009,-273.926,130.493,297.546
-0.885,0.860,-1.004,-270.874,146.057,299.377
-0.909,0.826,-0.953,-270.081,159.058,303.345
-0.880,0.751,-0.915,-271.118,167.786,307.495
-0.820,0.673,-0.865,-271.301,175.659,307.922
-0.784,0.599,-0.811,-271.301,183.411,307.434
-0.768,0.528,-0.720,-270.264,189.331,304.565
-0.769,0.464,-0.659,-265.076,190.674,300.110
-0.748,0.457,-0.634,-258.057,189.453,295.898
-0.741,0.450,-0.625,-253.418,185.547,292.603
-0.703,0.444,-0.633,-248.718,180.969,290.771
-0.632,0.455,-0.659,-245.972,179.321,289.978
-0.530,0.448,-0.675,-243.652,182.556,291.626
-0.409,0.426,-0.676,-243.958,191.162,292.908
-0.286,0.351,-0.642,-249.146,201.294,292.358
-0.162,0.269,-0.547,-250.793,210.388,290.771
-0.050,0.213,-0.458,-248.962,218.811,287.048
0.038,0.173,-0.386,-247.070,225.159,280.945
0.129,0.147,-0.318,-241.638,228.699,274.719
0.214,0.146,-0.289,-235.474,230.164,269.714
0.318,0.141,-0.260,-231.812,229.980,264.893
0.434,0.151,-0.227,-229.431,229.187,258.423
0.542,0.133,-0.176,-226.013,232.056,254.578
0.671,0.128,-0.103,-219.543,235.107,249.146
0.766,0.115,-0.027,-213.135,236.572,243.103
0.875,0.130,0.070,-206.665,233.582,236.389
0.975,0.114,0.177,-201.050,226.135,228.760
1.079,0.073,0.309,-198.303,214.050,219.482
1.185,0.013,0.462,-193.848,197.144,206.848
1.264,-0.026,0.540,-187.500,177.795,195.496
1.333,-0.153,0.632,-180.420,159.180,187.012
1.378,-0.214,0.706,-169.617,137.573,170.898
1.329,-0.259,0.692,-152.466,121.765,162.720
1.243,-0.240,0.670,-132.141,107.544,156.250
1.177,-0.230,0.630,-108.398,94.177,147.339
1.096,-0.203,0.540,-84.961,82.031,139.709
1.039,-0.115,0.410,-74.158,68.787,130.371
0.971,-0.011,0.331,-86.182,51.270,112.183
0.945,0.046,0.420,-106.812,31.616,90.881
0.956,0.046,0.539,-118.225,19.653,78.613
0.965,-0.005,0.688,-115.417,17.212,74.402
0.957,-0.053,0.799,-105.469,15.747,67.932
0.937,-0.078,0.892,-92.773,15.259,57.861
0.911,-0.078,0.948,-77.637,17.090,48.035
0.884,-0.062,1.027,-65.186,20.508,41.077
0.871,-0.067,1.116,-52.246,20.813,36.926
0.840,-0.101,1.204,-39.063,17.883,33.630
0.821,-0.147,1.275,-26.062,12.146,30.518
0.815,-0.195,1.286,-14.038,4.395,28.320
0.816,-0.239,1.262,-4.944,-5.676,24.414
0.811,-0.303,1.227,3.479,-14.893,19.958
0.793,-0.359,1.172,12.207,-22.095,15.076
0.764,-0.402,1.111,21.606,-27.405,11.292
0.728,-0.434,1.042,29.968,-30.090,6.653
0.662,-0.457,0.969,36.499,-30.701,3.296
0.607,-0.481,0.889,40.894,-30.090,0.671
0.545,-0.499,0.820,41.870,-29.846,-1.404
0.477,-0.510,0.756,39.978,-29.114,-2.502
0.432,-0.500,0.690,35.889,-27.222,-2.258
0.395,-0.516,0.663,30.457,-23.621,-1.892
0.376,-0.562,0.670,24.841,-17.761,-1.587
0.351,-0.583,0.685,22.339,-11.108,-1.770
0.346,-0.559,0.713,20.264,-5.188,-2.075
0.343,-0.541,0.748,17.578,-0.549,-2.197
0.358,-0.536,0.792,15.747,3.662,-2.014
0.393,-0.522,0.849,17.273,7.385,-1.770
0.438,-0.511,0.903,19.226,10.254,-1.770
0.473,-0.505,0.955,20.874,11.780,-2.136
0.465,-0.496,1.001,23.437,11.536,-2.136
0.451,-0.458,0.999,27.405,10.193,-1.953
0.418,-0.417,0.970,29.175,8.667,-2.136
0.385,-0.414,0.939,28.564,7.324,-2.502
0.371,-0.441,0.926,28.748,6.226,-2.625
0.360,-0.463,0.890,29.236,5.676,-2.380
0.350,-0.471,0.835,30.334,4.761,-2.258
0.347,-0.470,0.767,31.189,4.211,-2.197
0.352,-0.475,0.711,31.006,4.150,-2.441
0.339,-0.492,0.672,29.602,4.578,-2.380
0.354,-0.517,0.640,27.954,4.333,-2.258
0.370,-0.539,0.600,24.475,3.540,-2.625
0.372,-0.534,0.572,21.057,3.540,-3.845
0.380,-0.529,0.552,18.616,4.761,-4.089
0.372,-0.546,0.553,16.296,6.409,-3.784
0.377,-0.556,0.558,13.794,6.348,-3.662
0.396,-0.562,0.577,11.414,4.883,-4.578
0.403,-0.573,0.608,8.972,3.418,-6.226
0.398,-0.578,0.643,7.935,2.502,-6.409
0.398,-0.556,0.655,7.629,1.099,-6.165
0.411,-0.534,0.666,7.263,-0.549,-5.981
0.431,-0.541,0.683,6.287,-1.587,-5.920
0.456,-0.543,0.706,6.531,-1.526,-5.737
0.472,-0.558,0.725,6.775,-0.488,-5.737
0.479,-0.573,0.749,7.080,0.305,-6.104
0.486,-0.592,0.769,8.057,0.183,-6.836
0.491,-0.610,0.788,9.705,-0.427,-8.423
0.500,-0.612,0.799,12.756,-0.977,-9.338
0.509,-0.607,0.805,13.672,-1.953,-11.658
0.501,-0.606,0.819,14.709,-3.479,-13.916
0.513,-0.600,0.814,18.250,-4.456,-14.526
0.547,-0.588,0.811,22.644,-4.639,-15.808
0.588,-0.594,0.823,26.611,-4.456,-17.761
0.642,-0.615,0.845,31.311,-4.150,-20.142
0.698,-0.636,0.869,37.170,-4.578,-24.414
0.782,-0.652,0.892,44.800,-6.226,-29.663
0.861,-0.665,0.909,52.185,-9.399,-36.072
0.965,-0.671,0.920,60.608,-13.428,-45.105
1.069,-0.659,0.915,70.068,-18.433,-56.763
1.144,-0.730,0.953,81.970,-25.085,-72.876
1.235,-0.742,0.967,93.018,-30.396,-88.318
1.271,-0.782,0.988,104.675,-35.400,-106.445
1.277,-0.798,0.986,113.892,-39.490,-126.526
1.257,-0.795,0.976,124.146,-44.922,-149.597
1.221,-0.781,0.957,135.254,-51.453,-172.424
1.195,-0.725,0.920,140.503,-56.335,-192.932
1.158,-0.598,0.841,138.855,-58.594,-210.144
1.078,-0.527,0.790,131.775,-60.669,-221.497
0.981,-0.490,0.748,126.343,-62.866,-229.553

-0.559,1.414,-0.569,192.505,-9.399,-161.804
-0.566,1.421,-0.545,187.439,-1.709,-153.015
-0.562,1.412,-0.527,181.091,5.432,-146.606
-0.550,1.407,-0.509,175.354,11.780,-142.212
-0.542,1.414,-0.471,172.363,17.090,-138.794
-0.548,1.417,-0.427,172.119,20.569,-137.146
-0.556,1.422,-0.393,171.143,22.888,-135.620
-0.560,1.449,-0.351,171.265,24.475,-132.141
-0.583,1.483,-0.309,171.265,23.437,-124.390
-0.608,1.499,-0.283,166.260,20.264,-114.929
-0.619,1.501,-0.271,156.433,17.334,-105.591
-0.615,1.513,-0.246,146.240,16.235,-97.107
-0.625,1.545,-0.217,137.939,17.639,-89.111
-0.609,1.557,-0.198,128.845,20.203,-81.116
-0.887,1.929,-0.459,115.173,20.325,-76.233
-1.516,2.623,-0.815,85.144,-5.249,-82.153
-1.686,3.217,-0.939,39.063,-63.904,-81.421
-1.338,3.170,-0.751,-8.850,-105.225,-48.401
-0.672,2.564,-0.533,-32.837,-85.266,19.836
-0.236,1.786,-0.375,-26.489,-15.930,104.858
-0.223,1.123,-0.437,-10.315,62.866,169.189
-0.259,0.634,-0.397,5.737,102.661,174.377
-0.386,0.374,-0.286,12.817,103.333,141.052
-0.443,0.284,-0.148,8.728,89.111,95.032
-0.447,0.277,-0.023,7.019,68.848,51.331
-0.443,0.348,0.068,9.033,45.654,16.479
-0.457,0.472,0.112,12.451,22.217,-12.390
-0.491,0.642,0.093,12.146,0.488,-39.246
-0.509,0.817,0.025,5.920,-16.968,-60.852
-0.509,0.971,-0.065,-2.075,-28.687,-71.838
-0.494,1.079,-0.154,-6.714,-31.860,-70.923
-0.463,1.150,-0.239,-7.263,-27.222,-60.242
-0.420,1.141,-0.283,-4.272,-16.968,-45.227
-0.385,1.085,-0.282,0.549,-5.066,-29.480
-0.350,1.014,-0.268,5.066,5.554,-16.724
-0.337,0.948,-0.228,9.155,13.184,-6.592
-0.337,0.894,-0.168,12.878,18.982,1.770
-0.327,0.837,-0.120,16.968,23.254,9.521
-0.309,0.794,-0.093,20.142,24.231,15.442
-0.296,0.749,-0.083,20.630,21.057,17.090
-0.277,0.727,-0.083,18.921,15.869,15.381
-0.276,0.748,-0.097,14.526,9.155,12.146
-0.295,0.791,-0.134,7.080,1.709,6.775
-0.314,0.833,-0.173,-2.502,-3.662,0.244
-0.337,0.886,-0.203,-10.254,-6.409,-3.235
-0.363,0.929,-0.218,-14.221,-6.470,-3.479
-0.382,0.971,-0.227,-14.771,-4.822,-0.854
-0.389,0.984,-0.232,-14.282,-2.197,4.456
-0.393,0.974,-0.233,-13.977,0.732,9.949
-0.395,0.940,-0.217,-12.451,3.906,14.099
-0.396,0.904,-0.199,-8.362,7.385,17.517
-0.398,0.877,-0.177,-3.906,9.644,19.104
-0.411,0.849,-0.151,-0.793,9.705,18.005
-0.420,0.834,-0.137,0.977,8.301,14.771
-0.423,0.833,-0.123,2.319,5.798,11.047
-0.434,0.847,-0.111,3.052,2.930,6.653
-0.431,0.865,-0.116,3.479,1.160,2.014
-0.434,0.890,-0.125,3.784,0.183,-1.892
-0.434,0.915,-0.129,3.723,-0.183,-3.845
-0.438,0.925,-0.132,2.014,0.793,-4.944
-0.439,0.924,-0.131,0.671,2.197,-4.822
-0.430,0.918,-0.127,0.000,1.587,-2.686
-0.417,0.897,-0.132,-1.892,0.000,-1.343
-0.403,0.874,-0.145,-3.967,-0.427,-1.709
-0.392,0.859,-0.143,-3.540,-0.671,-1.709
-0.385,0.856,-0.150,-1.709,-0.671,-1.709
-0.380,0.859,-0.165,-0.488,-1.221,-2.625
-0.378,0.868,-0.170,-0.671,-2.258,-3.540
-0.375,0.885,-0.176,-1.404,-2.686,-4.089
-0.380,0.899,-0.188,-1.526,-2.136,-3.845
-0.381,0.910,-0.194,-0.671,-1.404,-3.052
-0.379,0.918,-0.186,0.366,-0.366,-1.709
-0.380,0.920,-0.190,0.549,0.183,0.671
-0.383,0.903,-0.198,-0.305,0.610,3.235
-0.381,0.888,-0.192,-0.122,2.075,4.639
-0.379,0.877,-0.173,0.977,3.479,5.859
-0.389,0.866,-0.156,1.831,3.052,6.958
-0.395,0.863,-0.147,1.221,2.075,6.470
-0.405,0.874,-0.147,0.000,1.526,4.822
-0.409,0.882,-0.147,-0.610,0.488,3.845
-0.411,0.888,-0.150,-0.671,-0.610,2.747
-0.413,0.889,-0.160,-0.244,-0.549,2.197
-0.411,0.891,-0.171,0.000,1.465,2.319
-0.416,0.891,-0.161,0.366,3.357,2.380
-0.415,0.888,-0.151,1.160,4.272,2.380
-0.411,0.889,-0.149,1.343,4.395,2.319
-0.410,0.890,-0.153,0.793,3.296,1.648
-0.409,0.885,-0.159,-0.610,2.014,0.732
-0.406,0.886,-0.160,-0.977,1.587,0.610
-0.410,0.886,-0.157,-0.488,1.038,2.258
-0.410,0.877,-0.157,-1.160,0.061,4.089
-0.406,0.870,-0.160,-3.113,-0.793,4.822
-0.412,0.878,-0.148,-4.822,-1.770,5.188
-0.418,0.876,-0.145,-6.653,-2.686,5.371
-0.416,0.890,-0.137,-9.033,-4.028,5.737
-0.440,0.891,-0.138,-11.353,-7.263,6.836
-0.448,0.889,-0.145,-15.137,-10.803,7.751
-0.457,0.894,-0.155,-18.738,-12.451,6.531
-0.452,0.884,-0.168,-20.935,-14.343,3.601
-0.453,0.873,-0.182,-23.621,-18.372,1.648
-0.440,0.858,-0.192,-26.062,-21.240,0.244
-0.427,0.854,-0.217,-27.771,-20.874,-1.892
-0.416,0.856,-0.233,-28.381,-18.494,-1.892
-0.410,0.859,-0.239,-26.062,-15.198,-0.671
-0.403,0.861,-0.242,-23.071,-12.451,1.221
-0.396,0.859,-0.244,-20.386,-9.766,2.563
-0.390,0.868,-0.245,-18.677,-6.287,4.211
-0.391,0.876,-0.248,-16.846,-2.563,6.165
-0.406,0.871,-0.248,-15.747,0.549,7.202
-0.404,0.868,-0.253,-14.343,2.563,6.470
-0.407,0.874,-0.251,-12.146,3.296,5.371
-0.402,0.868,-0.246,-8.972,2.991,4.089
-0.395,0.864,-0.245,-6.104,2.686,2.869
-0.386,0.861,-0.242,-3.540,2.441,2.258
-0.383,0.854,-0.245,-2.136,2.747,1.404
-0.379,0.847,-0.246,-1.160,3.723,0.671
-0.377,0.838,-0.243,-0.977,4.822,1.526
-0.380,0.834,-0.239,-0.610,5.981,2.197
-0.388,0.835,-0.233,-0.122,7.385,2.563

-0.848,1.574,-0.609,-62.256,-50.903,-3.357
-0.870,1.641,-0.671,-72.815,-45.715,13.428
-0.892,1.705,-0.698,-82.336,-41.077,34.912
-0.915,1.826,-0.734,-95.520,-42.114,52.979
-0.945,1.961,-0.765,-117.004,-46.936,66.101
-1.033,2.062,-0.837,-145.935,-50.598,74.951
-1.063,2.163,-0.880,-173.218,-51.819,91.553
-1.022,2.206,-0.895,-195.190,-50.232,117.371
-0.950,2.189,-0.943,-220.642,-37.964,143.494
-0.865,2.177,-1.006,-253.601,-16.357,170.349
-0.853,2.120,-1.077,-290.222,5.371,196.899
-0.851,2.055,-1.162,-321.777,25.330,220.886
-0.817,1.999,-1.213,-342.834,42.419,244.263
-0.761,1.980,-1.212,-357.483,57.800,264.832
-0.734,1.939,-1.234,-376.282,76.416,279.419
-0.730,1.855,-1.234,-391.113,92.834,290.710
-0.651,1.768,-1.194,-399.048,107.422,299.255
-0.607,1.724,-1.145,-407.227,125.061,306.885
-0.611,1.638,-1.105,-415.283,140.991,314.636
-0.569,1.549,-1.085,-413.513,152.588,316.223
-0.544,1.521,-1.097,-411.987,160.400,316.040
-0.571,1.510,-1.142,-413.513,166.626,317.200
-0.574,1.558,-1.207,-417.908,170.288,316.956
-0.513,1.578,-1.252,-428.223,174.683,315.613
-0.439,1.556,-1.337,-448.547,183.960,314.453
-0.293,1.486,-1.311,-464.294,200.317,314.331
-0.099,1.380,-1.235,-470.215,226.379,313.965
0.081,1.240,-1.076,-464.600,262.451,312.805
0.277,1.124,-0.867,-442.932,302.856,309.326
0.440,1.044,-0.676,-411.987,339.783,302.856
0.557,1.042,-0.494,-381.714,362.366,300.659
0.709,1.051,-0.321,-356.262,372.070,302.673
0.857,1.068,-0.155,-341.858,372.742,305.969
0.938,1.019,0.029,-342.651,368.469,308.533
1.047,0.937,0.207,-343.079,360.046,310.364
1.216,0.849,0.380,-336.975,349.365,311.707
1.361,0.697,0.576,-328.064,339.355,310.791
1.482,0.487,0.724,-317.505,330.872,306.335
1.590,0.277,0.846,-302.795,318.420,295.288
1.729,0.131,0.967,-279.358,297.546,275.940
1.851,0.041,1.100,-249.451,273.071,252.319
1.915,-0.034,1.233,-220.947,248.047,228.271
1.868,-0.158,1.354,-198.975,220.581,201.782
1.890,-0.158,1.505,-195.374,184.082,171.875
1.738,-0.375,1.656,-196.533,137.085,149.658
1.682,-0.247,1.465,-180.420,110.840,121.338
1.515,-0.295,1.241,-150.818,103.699,122.864
1.399,-0.297,1.077,-120.300,96.008,111.206
1.142,-0.344,1.001,-112.000,86.304,84.839
0.857,-0.316,0.976,-110.657,72.388,55.725
0.538,-0.242,0.895,-106.262,59.143,37.659
0.268,-0.128,0.740,-99.915,46.631,30.334
-0.005,-0.013,0.575,-88.745,27.893,28.503
-0.139,0.074,0.392,-75.806,8.423,34.302
-0.081,0.114,0.252,-63.049,-3.357,44.434
0.080,0.043,0.262,-53.040,-4.578,54.993
0.214,-0.094,0.348,-46.814,2.991,62.561
0.354,-0.185,0.482,-32.349,12.024,63.904
0.508,-0.317,0.602,-19.287,20.630,56.091
0.676,-0.335,0.760,-13.062,22.949,45.349
0.779,-0.370,0.944,0.366,20.752,35.706
0.889,-0.386,1.074,16.235,18.311,30.457
0.956,-0.399,1.148,29.236,16.174,27.527
0.987,-0.392,1.150,33.813,12.634,21.729
1.005,-0.364,1.137,30.884,6.714,13.733
0.963,-0.391,1.166,22.766,-1.343,7.874
0.833,-0.439,1.189,13.855,-7.629,2.136
0.707,-0.470,1.177,12.756,-13.733,-1.648
0.587,-0.474,1.131,15.381,-20.386,-4.944
0.452,-0.469,1.021,14.832,-24.841,-9.827
0.329,-0.437,0.944,16.418,-29.480,-14.404
0.242,-0.387,0.886,19.897,-31.799,-16.785
0.206,-0.367,0.820,23.682,-29.663,-16.907
0.201,-0.373,0.776,27.771,-24.048,-15.625
0.195,-0.412,0.776,31.311,-15.930,-12.939
0.225,-0.433,0.776,33.081,-7.141,-10.254
0.197,-0.460,0.793,32.410,-0.427,-8.789
0.173,-0.460,0.806,31.250,2.563,-6.653
0.180,-0.462,0.808,29.419,1.648,-3.479
0.197,-0.484,0.815,24.597,-1.160,-2.075
0.215,-0.518,0.845,20.935,-2.991,-1.038
0.228,-0.543,0.864,19.409,-4.211,1.831
0.247,-0.559,0.877,18.921,-5.798,3.662
0.267,-0.559,0.875,19.104,-7.263,3.174
0.293,-0.535,0.866,19.714,-8.301,1.648
0.305,-0.501,0.849,18.555,-7.935,-0.122
0.294,-0.481,0.847,16.052,-6.592,-1.953
0.284,-0.474,0.847,14.099,-5.737,-2.747
0.278,-0.473,0.845,13.489,-5.432,-2.991
0.262,-0.476,0.840,12.085,-5.249,-3.052
0.242,-0.498,0.832,10.681,-4.456,-3.723
0.229,-0.514,0.833,11.536,-3.601,-4.517
0.198,-0.534,0.844,13.672,-2.319,-5.920
0.157,-0.538,0.838,16.602,-1.587,-6.653
0.125,-0.515,0.820,19.775,-2.258,-5.615
0.118,-0.498,0.784,21.057,-4.272,-3.723
0.128,-0.478,0.741,19.043,-6.287,-2.075
0.142,-0.480,0.712,15.747,-6.592,-0.549
0.187,-0.484,0.683,13.733,-4.456,1.099
0.250,-0.505,0.683,12.268,-0.549,2.991
0.295,-0.535,0.698,10.010,4.395,3.723
0.312,-0.564,0.727,7.751,8.972,4.028
0.322,-0.583,0.764,7.996,11.353,3.296
0.317,-0.605,0.797,8.850,12.146,1.526
0.328,-0.611,0.808,9.827,11.047,-0.244
0.335,-0.602,0.818,10.803,7.690,-2.014
0.344,-0.595,0.803,11.963,4.883,-2.930
0.353,-0.588,0.800,13.184,2.563,-4.028
0.357,-0.566,0.788,13.306,0.610,-4.333
0.344,-0.555,0.786,12.329,-1.343,-4.578
0.322,-0.564,0.782,10.986,-3.784,-5.066
0.328,-0.565,0.769,11.475,-6.104,-5.432
0.356,-0.573,0.750,12.695,-7.446,-6.348
0.380,-0.575,0.745,13.428,-6.897,-8.240
0.377,-0.576,0.748,13.000,-5.005,-10.681
0.357,-0.580,0.759,13.306,-2.991,-12.634
0.341,-0.583,0.764,15.137,-2.319,-13.550
0.347,-0.596,0.759,16.418,-2.747,-15.564
0.364,-0.617,0.754,17.517,-4.028,-18.982

0.538,-0.895,1.149,112.366,-20.142,-54.077
0.621,-0.894,1.116,119.690,-28.442,-69.946
0.682,-0.896,1.088,125.366,-36.255,-84.351
0.726,-0.917,1.069,129.517,-43.335,-97.229
0.755,-0.926,1.037,133.789,-48.157,-107.361
0.775,-0.953,1.018,140.442,-51.575,-116.760
0.788,-0.958,0.985,150.757,-55.786,-124.878
0.804,-0.971,0.948,164.551,-61.218,-132.690
0.807,-0.966,0.908,176.819,-68.420,-142.700
0.837,-0.976,0.868,185.242,-75.684,-153.748
0.845,-0.957,0.844,189.819,-81.543,-164.551
0.849,-0.919,0.787,186.218,-84.717,-176.819
0.820,-0.878,0.684,176.270,-86.487,-188.904
0.781,-0.846,0.612,164.734,-89.966,-204.041
0.760,-0.788,0.568,158.813,-92.834,-215.454
0.716,-0.747,0.541,156.616,-92.224,-225.708
0.644,-0.731,0.480,153.137,-88.196,-236.877
0.587,-0.704,0.411,153.076,-85.388,-247.498
0.533,-0.666,0.362,155.823,-86.731,-258.301
0.494,-0.624,0.331,159.302,-90.393,-269.836
0.448,-0.578,0.292,162.292,-94.055,-282.043
0.418,-0.531,0.261,163.757,-97.412,-294.861
0.389,-0.468,0.236,165.710,-99.976,-306.580
0.341,-0.408,0.217,166.687,-99.548,-318.176
0.295,-0.330,0.192,164.429,-97.473,-328.491
0.245,-0.262,0.187,163.086,-94.055,-336.670
0.185,-0.190,0.165,162.659,-89.722,-343.140
0.147,-0.120,0.136,163.025,-86.670,-347.107
0.107,-0.044,0.106,164.185,-85.449,-348.206
0.074,0.018,0.083,164.856,-84.106,-348.022
0.042,0.073,0.057,164.673,-82.153,-346.802
0.017,0.127,0.022,165.039,-79.956,-344.360
0.003,0.156,-0.010,165.833,-76.965,-340.637
-0.021,0.194,-0.024,166.931,-71.838,-337.463
-0.028,0.228,-0.036,169.067,-64.636,-335.327
-0.023,0.269,-0.048,171.936,-58.777,-334.290
-0.022,0.318,-0.056,173.828,-55.176,-334.534
-0.018,0.355,-0.054,174.988,-49.561,-336.914
-0.025,0.417,-0.064,175.842,-42.053,-341.614
-0.025,0.498,-0.076,175.049,-37.231,-346.313
-0.043,0.587,-0.072,174.988,-33.508,-348.022
-0.058,0.681,-0.066,172.363,-28.198,-348.022
-0.072,0.785,-0.044,170.959,-22.339,-347.778
-0.089,0.897,-0.007,170.227,-17.395,-349.731
-0.125,1.017,0.031,170.532,-13.672,-351.135
-0.160,1.153,0.070,168.091,-11.108,-348.145
-0.188,1.266,0.096,171.265,-9.583,-337.585
-0.227,1.332,0.119,179.077,-8.118,-322.144
-0.249,1.388,0.135,181.763,-7.629,-305.542
-0.265,1.438,0.139,179.565,-9.766,-290.161
-0.271,1.470,0.129,173.584,-13.306,-277.161
-0.287,1.462,0.092,163.025,-15.503,-265.991
-0.275,1.499,0.133,141.113,-15.198,-249.268
-0.257,1.554,0.135,131.409,-13.733,-224.060
-0.271,1.505,0.102,154.297,-7.751,-205.811
-0.263,1.432,0.088,170.898,3.845,-194.519
-0.216,1.486,0.133,164.001,12.146,-181.580
-0.242,1.519,0.162,160.400,15.869,-171.814
-0.268,1.532,0.184,153.137,19.958,-166.077
-0.271,1.529,0.182,146.973,25.818,-161.438
-0.275,1.501,0.194,146.790,30.518,-155.334
-0.280,1.457,0.208,150.940,37.048,-145.142
-0.285,1.412,0.234,158.752,47.424,-130.981
-0.285,1.361,0.270,168.945,59.692,-115.356
-0.266,1.309,0.319,176.208,72.021,-100.281
-0.278,1.307,0.371,181.519,83.191,-88.013
-0.318,1.314,0.434,184.631,92.346,-80.811
-0.464,1.602,0.534,186.462,101.807,-75.012
-1.217,3.092,0.699,178.650,102.539,-88.196
-3.380,4.000,2.074,133.118,56.641,-187.561
-2.062,4.000,1.596,62.622,40.894,-279.358
-0.456,3.734,1.036,46.997,31.250,-161.621
-0.067,2.833,1.026,278.381,-57.495,50.415
-0.398,2.144,0.713,353.088,-74.402,213.379
-0.410,1.385,0.116,236.389,-3.235,273.010
-0.476,1.192,0.328,191.467,41.626,247.131
-0.643,0.500,-0.045,258.179,55.176,170.044
-0.515,0.620,0.167,174.011,48.645,137.878
-0.458,0.555,0.197,111.755,53.040,143.005
-0.476,0.504,0.273,59.448,57.007,152.405
-0.377,0.443,0.304,11.963,55.054,146.179
-0.295,0.335,0.402,-24.841,54.749,125.977
-0.231,0.106,0.352,-77.637,66.284,102.905
-0.167,0.006,0.394,-124.207,80.444,88.440
-0.134,-0.030,0.396,-149.536,86.792,80.383
-0.135,-0.010,0.536,-162.354,87.524,70.496
-0.166,0.027,0.633,-173.950,90.332,58.044
-0.217,0.102,0.742,-166.321,87.463,45.105
-0.263,0.196,0.859,-136.658,77.087,33.081
-0.313,0.339,0.908,-88.379,62.561,21.851
-0.329,0.466,0.843,-31.006,42.969,8.240
-0.338,0.580,0.804,9.949,18.372,-8.057
-0.337,0.668,0.740,35.950,-3.845,-23.987
-0.343,0.713,0.651,55.481,-20.203,-34.973
-0.336,0.760,0.614,71.289,-31.006,-38.025
-0.339,0.814,0.595,82.336,-35.950,-37.598
-0.360,0.856,0.566,92.346,-34.851,-37.109
-0.420,0.877,0.591,104.919,-31.189,-35.950
-0.475,0.930,0.623,113.037,-26.794,-32.104
-0.511,0.932,0.580,106.750,-22.339,-25.208
-0.527,0.934,0.633,98.022,-19.470,-13.611
-0.528,0.874,0.587,84.167,-16.785,1.282
-0.511,0.825,0.582,81.604,-14.404,18.677
-0.493,0.770,0.584,81.299,-10.193,33.875
-0.496,0.719,0.569,73.792,-2.869,43.274
-0.496,0.652,0.569,67.078,2.014,46.936
-0.489,0.588,0.579,58.838,4.700,46.814
-0.488,0.527,0.594,49.255,5.798,44.556
-0.488,0.475,0.607,37.170,5.310,40.283
-0.475,0.422,0.619,25.208,3.357,34.058
-0.464,0.388,0.641,15.747,0.793,27.161
-0.455,0.375,0.664,8.301,-1.038,19.470
-0.446,0.384,0.690,1.587,-2.136,11.169
-0.446,0.408,0.718,-4.761,-3.540,2.197
-0.450,0.442,0.736,-9.277,-5.127,-5.493
-0.451,0.488,0.741,-11.414,-6.409,-11.414
-0.457,0.541,0.736,-11.169,-7.263,-14.465
-0.460,0.582,0.723,-7.996,-7.385,-14.282
-0.471,0.613,0.709,-4.517,-6.470,-11.597
